"rt","url","trial_type","trial_index","time_elapsed","internal_node_id","file_id","fKeyMeansCorrect","ID","responses","final_height_px","final_width_px","scale_factor","view_history","type","first","second","same_key","different_key","answer","gap_duration","second_stim_duration","post_trial_gap","first_stim_duration","prompt","correct","response","encoding_time","condition","prefixes","root","suffixes","word","target_type","error_to_which_morpheme","i_morpheme","i_within_morpheme","target_letter_before_error","letter_after_error","error_word","is_error","wordlength"
"106812.30000001192","external-consent.html","external-html","0","106909","0.0-0.0","stimuli/11.csv","true","x4hmpcfrvh","","","","","","","","","","","","","","","","","","","","","","","","","","","","","","","","",""
"241958.5","","survey-dropdown","1","348872","0.0-1.0","stimuli/11.csv","true","x4hmpcfrvh","{""Q0"":""23"",""Q1"":""HighSchool""}","","","","","","","","","","","","","","","","","","","","","","","","","","","","","","","",""
"","","resize","2","359398","0.0-2.0","stimuli/11.csv","true","x4hmpcfrvh","","","414","1.2266666666666668","","","","","","","","","","","","","","","","","","","","","","","","","","","","",""
"3205","","instructions","3","362604","0.0-3.0","stimuli/11.csv","true","x4hmpcfrvh","","","","","[{""page_index"":0,""viewing_time"":3204.600000023842}]","","","","","","","","","","","","","","","","","","","","","","","","","","","",""
"394.59999999403954","","same-different-html","4","365729","0.0-4.0","stimuli/11.csv","true","x4hmpcfrvh","","","","","","same-different-html","decra","debra","f","j","different","1000","2000","500","null","null","true","74","500.90000000596046","","","","","","","","","","","","","",""
"382.30000001192093","","same-different-html","5","368505","0.0-5.0","stimuli/11.csv","true","x4hmpcfrvh","","","","","","same-different-html","histoire","histoire","f","j","same","1000","2000","500","null","null","true","70","441.2000000178814","r","","histoire","","histoire","control","r","","0","h","g","gistoire","0","8"
"407.09999999403954","","same-different-html","6","371202","0.0-6.0","stimuli/11.csv","true","x4hmpcfrvh","","","","","","same-different-html","magouille","magouille","f","j","same","1000","2000","500","null","null","true","70","456.09999999403954","r","","magouille","","magouille","control","r","","7","l","n","magouilne","0","9"
"450.2999999821186","","same-different-html","7","374012","0.0-7.0","stimuli/11.csv","true","x4hmpcfrvh","","","","","","same-different-html","transperce","transperse","f","j","different","1000","2000","500","null","null","false","70","474.30000001192093","pr_long","trans","perce","","transperce","target","r","","3","c","s","transperse","1","10"
"530.4000000059605","","same-different-html","8","376960","0.0-8.0","stimuli/11.csv","true","x4hmpcfrvh","","","","","","same-different-html","globe","gjobe","f","j","different","1000","2000","500","null","null","true","74","458.19999998807907","r","","globe","","globe","control","r","","1","l","j","gjobe","1","5"
"689.2000000178814","","same-different-html","9","379897","0.0-9.0","stimuli/11.csv","true","x4hmpcfrvh","","","","","","same-different-html","redéfaire","retéfaire","f","j","different","1000","2000","500","null","null","true","74","429.39999997615814","ppr","re_dé","faire","","redéfaire","target","p","1.0","0","d","t","retéfaire","1","9"
"513.5999999940395","","same-different-html","10","382698","0.0-10.0","stimuli/11.csv","true","x4hmpcfrvh","","","","","","same-different-html","beurre","beurre","f","j","same","1000","2000","500","null","null","true","70","469.60000002384186","r","","beurre","","beurre","control","r","","1","e","i","biurre","0","6"
"451.40000000596046","","same-different-html","11","385440","0.0-11.0","stimuli/11.csv","true","x4hmpcfrvh","","","","","","same-different-html","pourvu","pourvi","f","j","different","1000","2000","500","null","null","true","74","378.2999999821186","pr","pour","vu","","pourvu","target","r","","1","u","i","pourvi","1","6"
"391.69999998807907","","same-different-html","12","388190","0.0-12.0","stimuli/11.csv","true","x4hmpcfrvh","","","","","","same-different-html","harmonica","harmonica","f","j","same","1000","2000","500","null","null","true","70","489.5","r","","harmonica","","harmonica","control","r","","7","c","p","harmonipa","0","9"
"473.5","","same-different-html","13","391105","0.0-13.0","stimuli/11.csv","true","x4hmpcfrvh","","","","","","same-different-html","province","provirce","f","j","different","1000","2000","500","null","null","true","74","461.2999999821186","r","","province","","province","control","r","","5","n","r","provirce","1","8"
"477.7000000178814","","same-different-html","14","393798","0.0-14.0","stimuli/11.csv","true","x4hmpcfrvh","","","","","","same-different-html","assureur","assuriur","f","j","different","1000","2000","500","null","null","true","74","461.90000000596046","prs","as","sur","eur","assureur","target","s","0.0","0","e","i","assuriur","1","8"
"477.2000000178814","","same-different-html","15","396603","0.0-15.0","stimuli/11.csv","true","x4hmpcfrvh","","","","","","same-different-html","différent","différent","f","j","same","1000","2000","500","null","null","true","70","468.09999999403954","rs_long","","différ","ent","différent","target","s","0.0","1","n","l","différelt","0","9"
"551.2000000178814","","same-different-html","16","399363","0.0-16.0","stimuli/11.csv","true","x4hmpcfrvh","","","","","","same-different-html","usage","usage","f","j","same","1000","2000","500","null","null","true","70","384.5","rs","","us","age","usage","target","s","0.0","1","g","b","usabe","0","5"
"576.3000000119209","","same-different-html","17","402329","0.0-17.0","stimuli/11.csv","true","x4hmpcfrvh","","","","","","same-different-html","apocalypse","apocelypse","f","j","different","1000","2000","500","null","null","true","74","618.8000000119209","r","","apocalypse","","apocalypse","control","r","","4","a","e","apocelypse","1","10"
"865.5999999940395","","same-different-html","18","405821","0.0-18.0","stimuli/11.csv","true","x4hmpcfrvh","","","","","","same-different-html","escarmouche","escarmouphe","f","j","different","1000","2000","500","null","null","true","74","501","r","","escarmouche","","escarmouche","control","r","","8","c","p","escarmouphe","1","11"
"765.6999999880791","","same-different-html","19","409132","0.0-19.0","stimuli/11.csv","true","x4hmpcfrvh","","","","","","same-different-html","créativité","créativaté","f","j","different","1000","2000","500","null","null","true","74","605.9000000059605","rsss","","cré","at_iv_ité","créativité","target","s","2.0","0","i","a","créativaté","1","10"
"587.0999999940395","","same-different-html","20","412301","0.0-20.0","stimuli/11.csv","true","x4hmpcfrvh","","","","","","same-different-html","grenouille","grenouille","f","j","same","1000","2000","500","null","null","true","70","439.80000001192093","r","","grenouille","","grenouille","control","r","","4","o","e","greneuille","0","10"
"605","","same-different-html","21","415163","0.0-21.0","stimuli/11.csv","true","x4hmpcfrvh","","","","","","same-different-html","insonorité","insonorité","f","j","same","1000","2000","500","null","null","true","70","400.80000001192093","prss","in","son","or_ité","insonorité","target","r","","1","o","a","insanorité","0","10"
"635.6999999880791","","same-different-html","22","418262","0.0-22.0","stimuli/11.csv","true","x4hmpcfrvh","","","","","","same-different-html","utilisateur","utilisateur","f","j","same","1000","2000","500","null","null","true","70","563.8000000119209","rsss","","util","is_at_eur","utilisateur","target","s","0.0","1","s","t","utilitateur","0","11"
"714.3999999761581","","same-different-html","23","423751","0.0-23.0","stimuli/11.csv","true","x4hmpcfrvh","","","","","","same-different-html","rhinocéros","rhinocérot","f","j","different","1000","2000","500","null","null","true","74","884.6999999880791","r","","rhinocéros","","rhinocéros","control","r","","9","s","t","rhinocérot","1","10"
"404.80000001192093","","same-different-html","24","426787","0.0-24.0","stimuli/11.csv","true","x4hmpcfrvh","","","","","","same-different-html","irréel","irréel","f","j","same","1000","2000","500","null","null","true","70","473.7000000178814","pr","ir","réel","","irréel","target","r","","1","é","e","irreel","0","6"
"720.3000000119209","","same-different-html","25","429700","0.0-25.0","stimuli/11.csv","true","x4hmpcfrvh","","","","","","same-different-html","cauchemar","cauchemar","f","j","same","1000","2000","500","null","null","true","70","461.89999997615814","r","","cauchemar","","cauchemar","control","r","","8","r","n","caucheman","0","9"
"707.8000000119209","","same-different-html","26","434819","0.0-26.0","stimuli/11.csv","true","x4hmpcfrvh","","","","","","same-different-html","manigance","manigance","f","j","same","1000","2000","500","null","null","true","70","490.09999999403954","r","","manigance","","manigance","control","r","","5","a","i","manigince","0","9"
"462.5","","same-different-html","27","437398","0.0-27.0","stimuli/11.csv","true","x4hmpcfrvh","","","","","","same-different-html","finalité","finalité","f","j","same","1000","2000","500","null","null","true","70","292.40000000596046","rss","","fin","al_ité","finalité","target","s","1.0","2","é","u","finalitu","0","8"
"557.5","","same-different-html","28","440237","0.0-28.0","stimuli/11.csv","true","x4hmpcfrvh","","","","","","same-different-html","contraire","contraire","f","j","same","1000","2000","500","null","null","true","70","488.69999998807907","rs_long","","contr","aire","contraire","target","r","","2","n","j","cojtraire","0","9"
"871.9000000059605","","same-different-html","29","443227","0.0-29.0","stimuli/11.csv","true","x4hmpcfrvh","","","","","","same-different-html","chambranle","chamgranle","f","j","different","1000","2000","500","null","null","true","74","368.7000000178814","r","","chambranle","","chambranle","control","r","","4","b","g","chamgranle","1","10"
"651","","same-different-html","30","447172","0.0-30.0","stimuli/11.csv","true","x4hmpcfrvh","","","","","","same-different-html","diaphragme","diaphrugme","f","j","different","1000","2000","500","null","null","true","74","1205.7999999821186","r","","diaphragme","","diaphragme","control","r","","6","a","u","diaphrugme","1","10"
"473.2999999821186","","same-different-html","31","449856","0.0-31.0","stimuli/11.csv","true","x4hmpcfrvh","","","","","","same-different-html","malin","malin","f","j","same","1000","2000","500","null","null","true","70","443.19999998807907","rs","","mal","in","malin","target","s","0.0","1","n","r","malir","0","5"
"515.5999999940395","","same-different-html","32","452647","0.0-32.0","stimuli/11.csv","true","x4hmpcfrvh","","","","","","same-different-html","neutralité","neutrelité","f","j","different","1000","2000","500","null","null","true","74","458.5","rss","","neutr","al_ité","neutralité","target","s","0.0","0","a","e","neutrelité","1","10"
"588.1999999880791","","same-different-html","33","455615","0.0-33.0","stimuli/11.csv","true","x4hmpcfrvh","","","","","","same-different-html","impunité","impunité","f","j","same","1000","2000","500","null","null","true","70","498.19999998807907","prs","im","pun","ité","impunité","target","p","0.0","1","m","n","inpunité","0","8"
"497.40000000596046","","same-different-html","34","458349","0.0-34.0","stimuli/11.csv","true","x4hmpcfrvh","","","","","","same-different-html","idéalisme","icéalisme","f","j","different","1000","2000","500","null","null","true","74","431.40000000596046","rss","","idé","al_isme","idéalisme","target","r","","1","d","c","icéalisme","1","9"
"579.2000000178814","","same-different-html","35","461239","0.0-35.0","stimuli/11.csv","true","x4hmpcfrvh","","","","","","same-different-html","redecouvre","resecouvre","f","j","different","1000","2000","500","null","null","true","74","494.10000002384186","ppr","re_de","couvre","","redecouvre","target","p","1.0","0","d","s","resecouvre","1","10"
"764.5","","same-different-html","36","464967","0.0-36.0","stimuli/11.csv","true","x4hmpcfrvh","","","","","","same-different-html","chiquenaude","chiquenaude","f","j","same","1000","2000","500","null","null","true","70","1213.7000000178814","r","","chiquenaude","","chiquenaude","control","r","","9","d","f","chiquenaufe","0","11"
"548.0999999940395","","same-different-html","37","467814","0.0-37.0","stimuli/11.csv","true","x4hmpcfrvh","","","","","","same-different-html","catastrophe","catastropce","f","j","different","1000","2000","500","null","null","true","74","482.5","r","","catastrophe","","catastrophe","control","r","","9","h","c","catastropce","1","11"
"539","","same-different-html","38","470591","0.0-38.0","stimuli/11.csv","true","x4hmpcfrvh","","","","","","same-different-html","bourrin","boumrin","f","j","different","1000","2000","500","null","null","true","74","510.69999998807907","r","","bourrin","","bourrin","control","r","","3","r","m","boumrin","1","7"
"453.90000000596046","","same-different-html","39","473365","0.0-39.0","stimuli/11.csv","true","x4hmpcfrvh","","","","","","same-different-html","cellophane","cellophane","f","j","same","1000","2000","500","null","null","true","70","524.7000000178814","r","","cellophane","","cellophane","control","r","","1","e","i","cillophane","0","10"
"404.30000001192093","","same-different-html","40","476058","0.0-40.0","stimuli/11.csv","true","x4hmpcfrvh","","","","","","same-different-html","enlèvement","enlèvement","f","j","same","1000","2000","500","null","null","true","70","460.90000000596046","prs_long","en","lève","ment","enlèvement","target","r","","0","l","n","ennèvement","0","10"
"368.10000002384186","","same-different-html","41","478820","0.0-41.0","stimuli/11.csv","true","x4hmpcfrvh","","","","","","same-different-html","impulsivité","inpulsivité","f","j","different","1000","2000","500","null","null","false","70","510.59999999403954","prss","im","puls","iv_ité","impulsivité","target","p","0.0","1","m","n","inpulsivité","1","11"
"442.30000001192093","","same-different-html","42","481880","0.0-42.0","stimuli/11.csv","true","x4hmpcfrvh","","","","","","same-different-html","abracadabra","abracadabre","f","j","different","1000","2000","500","null","null","false","70","675.8000000119209","r","","abracadabra","","abracadabra","control","r","","10","a","e","abracadabre","1","11"
"889.6999999880791","","same-different-html","43","485479","0.0-43.0","stimuli/11.csv","true","x4hmpcfrvh","","","","","","same-different-html","imprudent","ilprudent","f","j","different","1000","2000","500","null","null","true","74","578.5999999940395","prs_long","im","prud","ent","imprudent","target","p","0.0","1","m","l","ilprudent","1","9"
"553.5","","same-different-html","44","488428","0.0-44.0","stimuli/11.csv","true","x4hmpcfrvh","","","","","","same-different-html","bachelier","bachilier","f","j","different","1000","2000","500","null","null","true","74","445.90000000596046","r","","bachelier","","bachelier","control","r","","4","e","i","bachilier","1","9"
"477.69999998807907","","same-different-html","45","491918","0.0-45.0","stimuli/11.csv","true","x4hmpcfrvh","","","","","","same-different-html","reliure","reliure","f","j","same","1000","2000","500","null","null","true","70","734.9000000059605","prs","re","li","ure","reliure","target","s","0.0","2","e","a","reliura","0","7"
"798.8000000119209","","same-different-html","46","495734","0.0-46.0","stimuli/11.csv","true","x4hmpcfrvh","","","","","","same-different-html","tintamarre","tintamanre","f","j","different","1000","2000","500","null","null","true","74","1030.4000000059605","r","","tintamarre","","tintamarre","control","r","","7","r","n","tintamanre","1","10"
"517.5999999940395","","same-different-html","47","498504","0.0-47.0","stimuli/11.csv","true","x4hmpcfrvh","","","","","","same-different-html","désordre","désirdre","f","j","different","1000","2000","500","null","null","true","74","481.5","pr","dés","ordre","","désordre","target","r","","0","o","i","désirdre","1","8"
"571.3000000119209","","same-different-html","48","501550","0.0-48.0","stimuli/11.csv","true","x4hmpcfrvh","","","","","","same-different-html","transporte","transporta","f","j","different","1000","2000","500","null","null","true","74","481.40000000596046","pr_long","trans","porte","","transporte","target","r","","4","e","a","transporta","1","10"
"642.2999999821186","","same-different-html","49","504556","0.0-49.0","stimuli/11.csv","true","x4hmpcfrvh","","","","","","same-different-html","ventilateur","ventilateur","f","j","same","1000","2000","500","null","null","true","70","419.30000001192093","rsss","","vent","il_at_eur","ventilateur","target","s","0.0","1","l","m","ventimateur","0","11"
"374.30000001192093","","same-different-html","50","507192","0.0-50.0","stimuli/11.csv","true","x4hmpcfrvh","","","","","","same-different-html","hurricane","hurricane","f","j","same","1000","2000","500","null","null","true","70","453.7999999821186","r","","hurricane","","hurricane","control","r","","3","r","m","hurmicane","0","9"
"540.5999999940395","","same-different-html","51","510171","0.0-51.0","stimuli/11.csv","true","x4hmpcfrvh","","","","","","same-different-html","choucroute","choucreute","f","j","different","1000","2000","500","null","null","true","74","429.90000000596046","r","","choucroute","","choucroute","control","r","","6","o","e","choucreute","1","10"
"416.40000000596046","","same-different-html","52","513037","0.0-52.0","stimuli/11.csv","true","x4hmpcfrvh","","","","","","same-different-html","prothèse","prothèse","f","j","same","1000","2000","500","null","null","true","70","509.69999998807907","r","","prothèse","","prothèse","control","r","","6","s","c","prothèce","0","8"
"423.5","","same-different-html","53","515875","0.0-53.0","stimuli/11.csv","true","x4hmpcfrvh","","","","","","same-different-html","manoeuvre","manoeuvre","f","j","same","1000","2000","500","null","null","true","70","470.2000000178814","r","","manoeuvre","","manoeuvre","control","r","","2","n","r","maroeuvre","0","9"
"412.89999997615814","","same-different-html","54","518679","0.0-54.0","stimuli/11.csv","true","x4hmpcfrvh","","","","","","same-different-html","holocauste","holocauste","f","j","same","1000","2000","500","null","null","true","70","482.19999998807907","r","","holocauste","","holocauste","control","r","","3","o","u","holucauste","0","10"
"333.80000001192093","","same-different-html","55","521429","0.0-55.0","stimuli/11.csv","true","x4hmpcfrvh","","","","","","same-different-html","action","action","f","j","same","1000","2000","500","null","null","true","70","438.5","rs","","act","ion","action","target","s","0.0","0","i","e","acteon","0","6"
"311.39999997615814","","same-different-html","56","524347","0.0-56.0","stimuli/11.csv","true","x4hmpcfrvh","","","","","","same-different-html","statue","statue","f","j","same","1000","2000","500","null","null","true","70","635.7000000178814","r","","statue","","statue","control","r","","1","t","g","sgatue","0","6"
"336.80000001192093","","same-different-html","57","527119","0.0-57.0","stimuli/11.csv","true","x4hmpcfrvh","","","","","","same-different-html","sinon","sinon","f","j","same","1000","2000","500","null","null","true","70","564.0999999940395","r","","sinon","","sinon","control","r","","2","n","r","siron","0","5"
"300.30000001192093","","same-different-html","58","529735","0.0-58.0","stimuli/11.csv","true","x4hmpcfrvh","","","","","","same-different-html","batterie","battérie","f","j","different","1000","2000","500","null","null","false","70","426.89999997615814","r","","batterie","","batterie","control","r","","4","e","é","battérie","1","8"
"822.2999999821186","","same-different-html","59","533331","0.0-59.0","stimuli/11.csv","true","x4hmpcfrvh","","","","","","same-different-html","ingéniosité","ingéniosité","f","j","same","1000","2000","500","null","null","true","70","857.8999999761581","prss","in","gén","ios_ité","ingéniosité","target","r","","2","n","m","ingémiosité","0","11"
"591.3000000119209","","same-different-html","60","536194","0.0-60.0","stimuli/11.csv","true","x4hmpcfrvh","","","","","","same-different-html","infortune","infortuné","f","j","different","1000","2000","500","null","null","true","74","403.40000000596046","pr_long","in","fortune","","infortune","target","r","","6","e","é","infortuné","1","9"
"591.6999999880791","","same-different-html","61","539466","0.0-61.0","stimuli/11.csv","true","x4hmpcfrvh","","","","","","same-different-html","surenchère","surànchère","f","j","different","1000","2000","500","null","null","true","74","710.1999999880791","ppr","sur_en","chère","","surenchère","target","p","1.0","0","e","à","surànchère","1","10"
"548.2999999821186","","same-different-html","62","542283","0.0-62.0","stimuli/11.csv","true","x4hmpcfrvh","","","","","","same-different-html","seulement","sealement","f","j","different","1000","2000","500","null","null","false","70","474.59999999403954","rs_long","","seule","ment","seulement","target","r","","2","u","a","sealement","1","9"
"448.5","","same-different-html","63","546055","0.0-63.0","stimuli/11.csv","true","x4hmpcfrvh","","","","","","same-different-html","pollen","sollen","f","j","different","1000","2000","500","null","null","true","74","481.59999999403954","r","","pollen","","pollen","control","r","","0","p","s","sollen","1","6"
"656.3999999761581","","same-different-html","64","549256","0.0-64.0","stimuli/11.csv","true","x4hmpcfrvh","","","","","","same-different-html","incroyable","incroyable","f","j","same","1000","2000","500","null","null","true","70","590.1999999880791","prs_long","in","croy","able","incroyable","target","s","0.0","1","b","s","incroyasle","0","10"
"1998.800000011921","","survey-text","65","551760","0.0-65.0","stimuli/11.csv","true","x4hmpcfrvh","{""Q0"":""""}","","","","","","","","","","","","","","","","","","","","","","","","","","","","","","","",""
