"rt","url","trial_type","trial_index","time_elapsed","internal_node_id","file_id","fKeyMeansCorrect","ID","responses","final_height_px","final_width_px","scale_factor","view_history","type","first","second","same_key","different_key","answer","gap_duration","second_stim_duration","post_trial_gap","first_stim_duration","prompt","correct","response","encoding_time","condition","prefixes","root","suffixes","word","target_type","error_to_which_morpheme","i_morpheme","i_within_morpheme","target_letter_before_error","letter_after_error","error_word","is_error","wordlength"
"6855.699999988079","external-consent.html","external-html","0","6863","0.0-0.0","stimuli/30.csv","true","7x6fpf4hzy","","","","","","","","","","","","","","","","","","","","","","","","","","","","","","","","",""
"5543","","survey-dropdown","1","12410","0.0-1.0","stimuli/30.csv","true","7x6fpf4hzy","{""Q0"":""22"",""Q1"":""Ba""}","","","","","","","","","","","","","","","","","","","","","","","","","","","","","","","",""
"","","resize","2","16582","0.0-2.0","stimuli/30.csv","true","7x6fpf4hzy","","","411","1.2177777777777776","","","","","","","","","","","","","","","","","","","","","","","","","","","","",""
"5269.5","","instructions","3","21853","0.0-3.0","stimuli/30.csv","true","7x6fpf4hzy","","","","","[{""page_index"":0,""viewing_time"":5269.100000023842}]","","","","","","","","","","","","","","","","","","","","","","","","","","","",""
"305.10000002384186","","same-different-html","4","24746","0.0-4.0","stimuli/30.csv","true","7x6fpf4hzy","","","","","","same-different-html","decra","debra","f","j","different","1000","2000","500","null","null","true","74","526.5999999642372","","","","","","","","","","","","","",""
"559.8999999761581","","same-different-html","5","28704","0.0-5.0","stimuli/30.csv","true","7x6fpf4hzy","","","","","","same-different-html","frankincense","frankincense","f","j","same","1000","2000","500","null","null","true","70","1032","r","","frankincense","","frankincense","control","r","","6","n","m","frankimcense","0","12"
"540","","same-different-html","6","31561","0.0-6.0","stimuli/30.csv","true","7x6fpf4hzy","","","","","","same-different-html","experience","experience","f","j","same","1000","2000","500","null","null","true","70","487.30000001192093","r","","experience","","experience","control","r","","8","c","d","experiende","0","10"
"367.60000002384186","","same-different-html","7","34189","0.0-7.0","stimuli/30.csv","true","7x6fpf4hzy","","","","","","same-different-html","understand","understand","f","j","same","1000","2000","500","null","null","true","70","448.10000002384186","r","","understand","","understand","control","r","","0","u","e","enderstand","0","10"
"454.39999997615814","","same-different-html","8","36793","0.0-8.0","stimuli/30.csv","true","7x6fpf4hzy","","","","","","same-different-html","threshold","dhreshold","f","j","different","1000","2000","500","null","null","true","74","478.5","r","","threshold","","threshold","control","r","","0","t","d","dhreshold","1","9"
"350.80000001192093","","same-different-html","9","39289","0.0-9.0","stimuli/30.csv","true","7x6fpf4hzy","","","","","","same-different-html","medicine","medicini","f","j","different","1000","2000","500","null","null","false","70","398.19999998807907","r","","medicine","","medicine","control","r","","7","e","i","medicini","1","8"
"415.89999997615814","","same-different-html","10","43085","0.0-10.0","stimuli/30.csv","true","7x6fpf4hzy","","","","","","same-different-html","thatrical","thatricam","f","j","different","1000","2000","500","null","null","true","74","510.39999997615814","rs_long","","thatric","al","thatrical","target","s","0.0","1","l","m","thatricam","1","9"
"412.69999998807907","","same-different-html","11","45891","0.0-11.0","stimuli/30.csv","true","7x6fpf4hzy","","","","","","same-different-html","phenomenon","phenomelon","f","j","different","1000","2000","500","null","null","false","70","568.3000000119209","r","","phenomenon","","phenomenon","control","r","","7","n","l","phenomelon","1","10"
"508","","same-different-html","12","49105","0.0-12.0","stimuli/30.csv","true","7x6fpf4hzy","","","","","","same-different-html","redeflate","redeflate","f","j","same","1000","2000","500","null","null","true","70","558","ppr","re_de","flate","","redeflate","target","r","","4","e","i","redeflati","0","9"
"448.10000002384186","","same-different-html","13","51763","0.0-13.0","stimuli/30.csv","true","7x6fpf4hzy","","","","","","same-different-html","palindrome","palindrome","f","j","same","1000","2000","500","null","null","true","70","436.9000000357628","r","","palindrome","","palindrome","control","r","","5","d","t","palintrome","0","10"
"341.39999997615814","","same-different-html","14","54294","0.0-14.0","stimuli/30.csv","true","7x6fpf4hzy","","","","","","same-different-html","antifreeze","antifreeze","f","j","same","1000","2000","500","null","null","true","70","383.60000002384186","pr_long","anti","freeze","","antifreeze","target","r","","0","f","h","antihreeze","0","10"
"549.4000000357628","","same-different-html","15","57071","0.0-15.0","stimuli/30.csv","true","7x6fpf4hzy","","","","","","same-different-html","hippopotamus","hippopotanus","f","j","different","1000","2000","500","null","null","true","74","424.9000000357628","r","","hippopotamus","","hippopotamus","control","r","","9","m","n","hippopotanus","1","12"
"627.8000000119209","","same-different-html","16","60244","0.0-16.0","stimuli/30.csv","true","7x6fpf4hzy","","","","","","same-different-html","unrelatable","unralatable","f","j","different","1000","2000","500","null","null","true","74","487.5999999642372","pprs","un_re","lat","able","unrelatable","target","p","1.0","1","e","a","unralatable","1","11"
"436.10000002384186","","same-different-html","17","62932","0.0-17.0","stimuli/30.csv","true","7x6fpf4hzy","","","","","","same-different-html","warmer","wanmer","f","j","different","1000","2000","500","null","null","true","74","463.60000002384186","rs","","warm","er","warmer","target","r","","2","r","n","wanmer","1","6"
"443.69999998807907","","same-different-html","18","65713","0.0-18.0","stimuli/30.csv","true","7x6fpf4hzy","","","","","","same-different-html","hallelujah","hallelujah","f","j","same","1000","2000","500","null","null","false","74","502.69999998807907","r","","hallelujah","","hallelujah","control","r","","6","u","a","hallelajah","0","10"
"435.4000000357628","","same-different-html","19","68521","0.0-19.0","stimuli/30.csv","true","7x6fpf4hzy","","","","","","same-different-html","abracadabra","abracahabra","f","j","different","1000","2000","500","null","null","false","70","562.5","r","","abracadabra","","abracadabra","control","r","","6","d","h","abracahabra","1","11"
"530.5","","same-different-html","20","71613","0.0-20.0","stimuli/30.csv","true","7x6fpf4hzy","","","","","","same-different-html","privilege","privilege","f","j","same","1000","2000","500","null","null","true","70","525.5","r","","privilege","","privilege","control","r","","5","l","r","privirege","0","9"
"527.9000000357628","","same-different-html","21","74383","0.0-21.0","stimuli/30.csv","true","7x6fpf4hzy","","","","","","same-different-html","egoistically","ehoistically","f","j","different","1000","2000","500","null","null","true","74","478","rssss","","ego","ist_ic_al_ly","egoistically","target","r","","1","g","h","ehoistically","1","12"
"423","","same-different-html","22","77600","0.0-22.0","stimuli/30.csv","true","7x6fpf4hzy","","","","","","same-different-html","irrelevant","irrelevant","f","j","same","1000","2000","500","null","null","true","70","543.5","pprs","ir_re","lev","ant","irrelevant","target","p","0.0","1","r","w","iwrelevant","0","10"
"401.19999998807907","","same-different-html","23","80819","0.0-23.0","stimuli/30.csv","true","7x6fpf4hzy","","","","","","same-different-html","immorally","immorally","f","j","same","1000","2000","500","null","null","true","70","601","prs","im","moral","ly","immorally","target","s","0.0","1","y","n","immoralln","0","9"
"509.69999998807907","","same-different-html","24","83716","0.0-24.0","stimuli/30.csv","true","7x6fpf4hzy","","","","","","same-different-html","nonstop","nonstop","f","j","same","1000","2000","500","null","null","true","70","588.7000000476837","pr","non","stop","","nonstop","target","r","","0","s","d","nondtop","0","7"
"421.5","","same-different-html","25","86458","0.0-25.0","stimuli/30.csv","true","7x6fpf4hzy","","","","","","same-different-html","reinsurance","reinsarance","f","j","different","1000","2000","500","null","null","false","70","510.19999998807907","pprs","re_in","sur","ance","reinsurance","target","r","","1","u","a","reinsarance","1","11"
"475","","same-different-html","26","89260","0.0-26.0","stimuli/30.csv","true","7x6fpf4hzy","","","","","","same-different-html","counsel","counser","f","j","different","1000","2000","500","null","null","true","74","483.5","r","","counsel","","counsel","control","r","","6","l","r","counser","1","7"
"555.6999999880791","","same-different-html","27","92166","0.0-27.0","stimuli/30.csv","true","7x6fpf4hzy","","","","","","same-different-html","graphically","grapdically","f","j","different","1000","2000","500","null","null","true","74","528.6999999880791","rsss","","graph","ic_al_ly","graphically","target","r","","4","h","d","grapdically","1","11"
"565.1000000238419","","same-different-html","28","95057","0.0-28.0","stimuli/30.csv","true","7x6fpf4hzy","","","","","","same-different-html","chameleon","chareleon","f","j","different","1000","2000","500","null","null","true","74","480.80000001192093","r","","chameleon","","chameleon","control","r","","3","m","r","chareleon","1","9"
"930.4000000357628","","same-different-html","29","98553","0.0-29.0","stimuli/30.csv","true","7x6fpf4hzy","","","","","","same-different-html","reactivate","reastivate","f","j","different","1000","2000","500","null","null","true","74","740.2000000476837","prss","re","act","iv_ate","reactivate","target","r","","1","c","s","reastivate","1","10"
"690.1000000238419","","same-different-html","30","101976","0.0-30.0","stimuli/30.csv","true","7x6fpf4hzy","","","","","","same-different-html","disorderly","disorderlr","f","j","different","1000","2000","500","null","null","true","74","732","prs_long","dis","order","ly","disorderly","target","s","0.0","1","y","r","disorderlr","1","10"
"561.1999999880791","","same-different-html","31","104954","0.0-31.0","stimuli/30.csv","true","7x6fpf4hzy","","","","","","same-different-html","habitually","habisually","f","j","different","1000","2000","500","null","null","true","74","391.69999998807907","rss","","habit","ual_ly","habitually","target","r","","4","t","s","habisually","1","10"
"549.2000000476837","","same-different-html","32","108338","0.0-32.0","stimuli/30.csv","true","7x6fpf4hzy","","","","","","same-different-html","identically","identically","f","j","same","1000","2000","500","null","null","true","70","583.1000000238419","rsss","","ident","ic_al_ly","identically","target","r","","4","t","h","idenhically","0","11"
"584.5","","same-different-html","33","111518","0.0-33.0","stimuli/30.csv","true","7x6fpf4hzy","","","","","","same-different-html","amateurism","amateurism","f","j","same","1000","2000","500","null","null","true","70","703.0999999642372","rs_long","","amateur","ism","amateurism","target","s","0.0","2","m","r","amateurisr","0","10"
"407.10000002384186","","same-different-html","34","114168","0.0-34.0","stimuli/30.csv","true","7x6fpf4hzy","","","","","","same-different-html","distasteful","distasteful","f","j","same","1000","2000","500","null","null","true","70","474.69999998807907","prs_long","dis","taste","ful","distasteful","target","s","0.0","1","u","a","distastefal","0","11"
"682.8999999761581","","same-different-html","35","117499","0.0-35.0","stimuli/30.csv","true","7x6fpf4hzy","","","","","","same-different-html","encylcopedia","encylpopedia","f","j","different","1000","2000","500","null","null","false","70","771.3999999761581","r","","encylcopedia","","encylcopedia","control","r","","5","c","p","encylpopedia","1","12"
"539","","same-different-html","36","120757","0.0-36.0","stimuli/30.csv","true","7x6fpf4hzy","","","","","","same-different-html","trustful","truhtful","f","j","different","1000","2000","500","null","null","true","74","670.3000000119209","rs","","trust","ful","trustful","target","r","","3","s","h","truhtful","1","8"
"430.0999999642372","","same-different-html","37","123445","0.0-37.0","stimuli/30.csv","true","7x6fpf4hzy","","","","","","same-different-html","artifice","artifice","f","j","same","1000","2000","500","null","null","true","70","489.5999999642372","r","","artifice","","artifice","control","r","","3","i","e","artefice","0","8"
"761.1000000238419","","same-different-html","38","126618","0.0-38.0","stimuli/30.csv","true","7x6fpf4hzy","","","","","","same-different-html","overexpose","overexpose","f","j","same","1000","2000","500","null","null","true","70","541.3000000119209","ppr","over_ex","pose","","overexpose","target","r","","1","o","e","overexpese","0","10"
"610","","same-different-html","39","129574","0.0-39.0","stimuli/30.csv","true","7x6fpf4hzy","","","","","","same-different-html","embarrass","emharrass","f","j","different","1000","2000","500","null","null","true","74","467.89999997615814","r","","embarrass","","embarrass","control","r","","2","b","h","emharrass","1","9"
"501.10000002384186","","same-different-html","40","132291","0.0-40.0","stimuli/30.csv","true","7x6fpf4hzy","","","","","","same-different-html","skeleton","skeleton","f","j","same","1000","2000","500","null","null","true","70","415.80000001192093","r","","skeleton","","skeleton","control","r","","3","l","m","skemeton","0","8"
"600.9000000357628","","same-different-html","41","135115","0.0-41.0","stimuli/30.csv","true","7x6fpf4hzy","","","","","","same-different-html","untie","untie","f","j","same","1000","2000","500","null","null","true","70","422.5","pr","un","tie","","untie","target","p","0.0","1","n","r","urtie","0","5"
"466.80000001192093","","same-different-html","42","138514","0.0-42.0","stimuli/30.csv","true","7x6fpf4hzy","","","","","","same-different-html","cellophane","cellophone","f","j","different","1000","2000","500","null","null","true","74","618.5","r","","cellophane","","cellophane","control","r","","7","a","o","cellophone","1","10"
"520.3000000119209","","same-different-html","43","141654","0.0-43.0","stimuli/30.csv","true","7x6fpf4hzy","","","","","","same-different-html","sagittarius","sagittarius","f","j","same","1000","2000","500","null","null","true","70","581.8000000119209","r","","sagittarius","","sagittarius","control","r","","7","r","m","sagittamius","0","11"
"577.8999999761581","","same-different-html","44","144533","0.0-44.0","stimuli/30.csv","true","7x6fpf4hzy","","","","","","same-different-html","marshmallow","marfhmallow","f","j","different","1000","2000","500","null","null","true","74","474.30000001192093","r","","marshmallow","","marshmallow","control","r","","3","s","f","marfhmallow","1","11"
"496.19999998807907","","same-different-html","45","147150","0.0-45.0","stimuli/30.csv","true","7x6fpf4hzy","","","","","","same-different-html","clandestine","clandestine","f","j","same","1000","2000","500","null","null","true","70","410.19999998807907","r","","clandestine","","clandestine","control","r","","3","n","m","clamdestine","0","11"
"453.69999998807907","","same-different-html","46","149865","0.0-46.0","stimuli/30.csv","true","7x6fpf4hzy","","","","","","same-different-html","caterpillar","caterpillar","f","j","same","1000","2000","500","null","null","true","70","407.10000002384186","r","","caterpillar","","caterpillar","control","r","","10","r","y","caterpillay","0","11"
"485.80000001192093","","same-different-html","47","152765","0.0-47.0","stimuli/30.csv","true","7x6fpf4hzy","","","","","","same-different-html","inactivate","inactivate","f","j","same","1000","2000","500","null","null","true","70","432.30000001192093","prss","in","act","iv_ate","inactivate","target","p","0.0","1","n","y","iyactivate","0","10"
"622.8999999761581","","same-different-html","48","155693","0.0-48.0","stimuli/30.csv","true","7x6fpf4hzy","","","","","","same-different-html","unfairly","ulfairly","f","j","different","1000","2000","500","null","null","true","74","405.7999999523163","prs","un","fair","ly","unfairly","target","p","0.0","1","n","l","ulfairly","1","8"
"388.0999999642372","","same-different-html","49","158303","0.0-49.0","stimuli/30.csv","true","7x6fpf4hzy","","","","","","same-different-html","divide","divide","f","j","same","1000","2000","500","null","null","true","70","433.69999998807907","r","","divide","","divide","control","r","","0","d","h","hivide","0","6"
"455.89999997615814","","same-different-html","50","161075","0.0-50.0","stimuli/30.csv","true","7x6fpf4hzy","","","","","","same-different-html","lawfully","lawfully","f","j","same","1000","2000","500","null","null","false","74","509.69999998807907","rss","","law","ful_ly","lawfully","target","r","","1","a","i","liwfully","0","8"
"440","","same-different-html","51","163984","0.0-51.0","stimuli/30.csv","true","7x6fpf4hzy","","","","","","same-different-html","abnormally","abnormally","f","j","same","1000","2000","500","null","null","true","70","526.3999999761581","prss","ab","norm","al_ly","abnormally","target","s","1.0","0","l","r","abnormalry","0","10"
"477.5999999642372","","same-different-html","52","166736","0.0-52.0","stimuli/30.csv","true","7x6fpf4hzy","","","","","","same-different-html","willfully","willtully","f","j","different","1000","2000","500","null","null","true","74","452.80000001192093","rss","","will","ful_ly","willfully","target","s","0.0","0","f","t","willtully","1","9"
"434.19999998807907","","same-different-html","53","169610","0.0-53.0","stimuli/30.csv","true","7x6fpf4hzy","","","","","","same-different-html","leprechaun","leprechaun","f","j","same","1000","2000","500","null","null","true","70","612.7999999523163","r","","leprechaun","","leprechaun","control","r","","4","e","a","leprachaun","0","10"
"805.8000000119209","","same-different-html","54","172730","0.0-54.0","stimuli/30.csv","true","7x6fpf4hzy","","","","","","same-different-html","deactivation","daactivation","f","j","different","1000","2000","500","null","null","true","74","483.89999997615814","prsss","de","act","iv_at_ion","deactivation","target","p","0.0","1","e","a","daactivation","1","12"
"640","","same-different-html","55","176038","0.0-55.0","stimuli/30.csv","true","7x6fpf4hzy","","","","","","same-different-html","rhododendron","rhodokendron","f","j","different","1000","2000","500","null","null","true","74","792.3999999761581","r","","rhododendron","","rhododendron","control","r","","5","d","k","rhodokendron","1","12"
"558.4000000357628","","same-different-html","56","178926","0.0-56.0","stimuli/30.csv","true","7x6fpf4hzy","","","","","","same-different-html","remover","rimover","f","j","different","1000","2000","500","null","null","false","70","445.4000000357628","prs","re","mov","er","remover","target","p","0.0","1","e","i","rimover","1","7"
"534","","same-different-html","57","184414","0.0-57.0","stimuli/30.csv","true","7x6fpf4hzy","","","","","","same-different-html","enfranchise","enfranchise","f","j","same","1000","2000","500","null","null","true","70","536.7999999523163","pr_long","en","franchise","","enfranchise","target","r","","7","s","t","enfranchite","0","11"
"400","","same-different-html","58","187130","0.0-58.0","stimuli/30.csv","true","7x6fpf4hzy","","","","","","same-different-html","difficult","difficult","f","j","same","1000","2000","500","null","null","true","70","404.19999998807907","r","","difficult","","difficult","control","r","","3","f","s","difsicult","0","9"
"671.8999999761581","","same-different-html","59","190172","0.0-59.0","stimuli/30.csv","true","7x6fpf4hzy","","","","","","same-different-html","artistically","antistically","f","j","different","1000","2000","500","null","null","true","74","435.9000000357628","rssss","","art","ist_ic_al_ly","artistically","target","r","","1","r","n","antistically","1","12"
"566.6999999880791","","same-different-html","60","193052","0.0-60.0","stimuli/30.csv","true","7x6fpf4hzy","","","","","","same-different-html","inactivation","inactivation","f","j","same","1000","2000","500","null","null","true","70","434.9000000357628","prsss","in","act","iv_at_ion","inactivation","target","p","0.0","1","n","y","iyactivation","0","12"
"546.1000000238419","","same-different-html","61","195928","0.0-61.0","stimuli/30.csv","true","7x6fpf4hzy","","","","","","same-different-html","chemically","chemicayly","f","j","different","1000","2000","500","null","null","true","74","447.80000001192093","rsss","","chem","ic_al_ly","chemically","target","s","1.0","1","l","y","chemicayly","1","10"
"509.19999998807907","","same-different-html","62","198730","0.0-62.0","stimuli/30.csv","true","7x6fpf4hzy","","","","","","same-different-html","value","valuo","f","j","different","1000","2000","500","null","null","true","74","495.5","r","","value","","value","control","r","","4","e","o","valuo","1","5"
"732.6000000238419","","same-different-html","63","201696","0.0-63.0","stimuli/30.csv","true","7x6fpf4hzy","","","","","","same-different-html","restaurant","restaurant","f","j","same","1000","2000","500","null","null","true","70","372.69999998807907","r","","restaurant","","restaurant","control","r","","6","r","l","restaulant","0","10"
"437.19999998807907","","same-different-html","64","204500","0.0-64.0","stimuli/30.csv","true","7x6fpf4hzy","","","","","","same-different-html","prime","priye","f","j","different","1000","2000","500","null","null","true","74","460.89999997615814","r","","prime","","prime","control","r","","3","m","y","priye","1","5"
"574.2999999523163","","same-different-html","65","207381","0.0-65.0","stimuli/30.csv","true","7x6fpf4hzy","","","","","","same-different-html","criteria","critewia","f","j","different","1000","2000","500","null","null","true","74","443.89999997615814","r","","criteria","","criteria","control","r","","5","r","w","critewia","1","8"
"547.5999999642372","","same-different-html","66","210175","0.0-66.0","stimuli/30.csv","true","7x6fpf4hzy","","","","","","same-different-html","tambourine","tambourine","f","j","same","1000","2000","500","null","null","true","70","434.19999998807907","r","","tambourine","","tambourine","control","r","","6","r","m","tamboumine","0","10"
"490.30000001192093","","same-different-html","67","212905","0.0-67.0","stimuli/30.csv","true","7x6fpf4hzy","","","","","","same-different-html","reoutsell","leoutsell","f","j","different","1000","2000","500","null","null","true","74","413.80000001192093","ppr","re_out","sell","","reoutsell","target","p","0.0","0","r","l","leoutsell","1","9"
"453.80000001192093","","same-different-html","68","215758","0.0-68.0","stimuli/30.csv","true","7x6fpf4hzy","","","","","","same-different-html","country","counpry","f","j","different","1000","2000","500","null","null","true","74","491.5","r","","country","","country","control","r","","4","t","p","counpry","1","7"
"822.6999999880791","","same-different-html","69","218968","0.0-69.0","stimuli/30.csv","true","7x6fpf4hzy","","","","","","same-different-html","catastrophe","catashrophe","f","j","different","1000","2000","500","null","null","true","74","594.9000000357628","r","","catastrophe","","catastrophe","control","r","","5","t","h","catashrophe","1","11"
"547.0999999642372","","same-different-html","70","221851","0.0-70.0","stimuli/30.csv","true","7x6fpf4hzy","","","","","","same-different-html","unarm","unarm","f","j","same","1000","2000","500","null","null","true","70","509.39999997615814","pr","un","arm","","unarm","target","r","","1","r","m","unamm","0","5"
"432.5","","same-different-html","71","224518","0.0-71.0","stimuli/30.csv","true","7x6fpf4hzy","","","","","","same-different-html","silhouette","silhouette","f","j","same","1000","2000","500","null","null","true","70","552.8000000119209","r","","silhouette","","silhouette","control","r","","2","l","m","simhouette","0","10"
"431.5999999642372","","same-different-html","72","227378","0.0-72.0","stimuli/30.csv","true","7x6fpf4hzy","","","","","","same-different-html","seasonal","seasonal","f","j","same","1000","2000","500","null","null","true","70","529.6999999880791","rs","","season","al","seasonal","target","r","","5","n","w","seasowal","0","8"
"2130.600000023842","","survey-text","73","230025","0.0-73.0","stimuli/30.csv","true","7x6fpf4hzy","{""Q0"":""""}","","","","","","","","","","","","","","","","","","","","","","","","","","","","","","","",""
