"rt","url","trial_type","trial_index","time_elapsed","internal_node_id","file_id","fKeyMeansCorrect","ID","responses","final_height_px","final_width_px","scale_factor","view_history","type","first","second","same_key","different_key","answer","gap_duration","second_stim_duration","post_trial_gap","first_stim_duration","prompt","correct","response","encoding_time","condition","root","prefixes","suffixes","word","error_to_which_morpheme","i_morpheme","i_within_morpheme","target_letter_before_error","letter_after_error","error_word","is_error"
"22647.899999976158","external-consent.html","external-html","0","22748","0.0-0.0","stimuli/0.csv","true","zfvqevu3n7","","","","","","","","","","","","","","","","","","","","","","","","","","","","","","",""
"6840.600000023842","","survey-dropdown","1","29592","0.0-1.0","stimuli/0.csv","true","zfvqevu3n7","{""Q0"":""23"",""Q1"":""HighSchool""}","","","","","","","","","","","","","","","","","","","","","","","","","","","","","",""
"","","resize","2","33201","0.0-2.0","stimuli/0.csv","true","zfvqevu3n7","","","418","1.2385185185185186","","","","","","","","","","","","","","","","","","","","","","","","","","",""
"1991560","","instructions","3","2024761","0.0-3.0","stimuli/0.csv","true","zfvqevu3n7","","","","","[{""page_index"":0,""viewing_time"":1991555.8999999762}]","","","","","","","","","","","","","","","","","","","","","","","","","",""
"990.3999999761581","","same-different-html","4","2083247","0.0-4.0","stimuli/0.csv","true","zfvqevu3n7","","","","","","same-different-html","decra","debra","f","j","different","1000","2000","500","null","null","true","74","243.10000002384186","","","","","","","","","","","",""
"995.2999999523163","","same-different-html","5","2090922","0.0-5.0","stimuli/0.csv","true","zfvqevu3n7","","","","","","same-different-html","reimfomable","reimfomable","f","j","same","1000","2000","500","null","null","true","70","3399.7000000476837","pprs","fom","re_im","able","reimfomable","r","","0","f","c","reimcomable","0"
"774.1000000238419","","same-different-html","6","2094776","0.0-6.0","stimuli/0.csv","true","zfvqevu3n7","","","","","","same-different-html","trupal","trupal","f","j","same","1000","2000","500","null","null","true","70","875.4000000953674","rs","trup","","al","trupal","s","0.0","0","a","e","trupel","0"
"2479.6999999284744","","same-different-html","7","2105413","0.0-7.0","stimuli/0.csv","true","zfvqevu3n7","","","","","","same-different-html","mimearcilayl","mimearcilayl","f","j","same","1000","2000","500","null","null","true","70","6205.5","prsss","mear","mi","ci_la_yl","mimearcilayl","s","2.0","0","y","m","mimearcilaml","0"
"917.5","","same-different-html","8","2117628","0.0-8.0","stimuli/0.csv","true","zfvqevu3n7","","","","","","same-different-html","ersimmarnemt","ersimmarnemt","f","j","same","1000","2000","500","null","null","true","70","4196.399999976158","pprs","mar","er_sim","nemt","ersimmarnemt","s","0.0","0","n","w","ersimmarwemt","0"
"1444.8000000715256","","same-different-html","9","2123713","0.0-9.0","stimuli/0.csv","true","zfvqevu3n7","","","","","","same-different-html","ereddob","ereddob","f","j","same","1000","2000","500","null","null","true","70","2473.7000000476837","ppr","dob","er_ed","","ereddob","p","0.0","0","e","o","oreddob","0"
"1114.2999999523163","","same-different-html","10","2128512","0.0-10.0","stimuli/0.csv","true","zfvqevu3n7","","","","","","same-different-html","ersimkeat","erdimkeat","f","j","different","1000","2000","500","null","null","true","74","1660.5","ppr","keat","er_sim","","ersimkeat","p","1.0","0","s","d","erdimkeat","1"
"886.6000000238419","","same-different-html","11","2132418","0.0-11.0","stimuli/0.csv","true","zfvqevu3n7","","","","","","same-different-html","lonious","lonious","f","j","same","1000","2000","500","null","null","true","70","989.5999999046326","rs","lon","","ious","lonious","s","0.0","1","o","e","lonieus","0"
"780","","same-different-html","12","2135766","0.0-12.0","stimuli/0.csv","true","zfvqevu3n7","","","","","","same-different-html","reinfom","reinfom","f","j","same","1000","2000","500","null","null","true","70","713.8000000715256","ppr","fom","re_in","","reinfom","p","0.0","1","e","u","ruinfom","0"
"1170.4000000953674","","same-different-html","13","2143961","0.0-13.0","stimuli/0.csv","true","zfvqevu3n7","","","","","","same-different-html","mipurtcilbatiy","mipurtcilbotiy","f","j","different","1000","2000","500","null","null","true","74","5189.800000071526","prsss","purt","mi","ci_lba_tiy","mipurtcilbatiy","s","1.0","2","a","o","mipurtcilbotiy","1"
"1064.2999999523163","","same-different-html","14","2150423","0.0-14.0","stimuli/0.csv","true","zfvqevu3n7","","","","","","same-different-html","edpurt","etpurt","f","j","different","1000","2000","500","null","null","false","70","902.3999999761581","pr","purt","ed","","edpurt","p","0.0","1","d","t","etpurt","1"
"1977.7000000476837","","same-different-html","15","2162822","0.0-15.0","stimuli/0.csv","true","zfvqevu3n7","","","","","","same-different-html","nonresoomivity","nonrehoomivity","f","j","different","1000","2000","500","null","null","true","74","8508.699999928474","pprss","soom","non_re","iv_ity","nonresoomivity","r","","0","s","h","nonrehoomivity","1"
"1500.5","","same-different-html","16","2168540","0.0-16.0","stimuli/0.csv","true","zfvqevu3n7","","","","","","same-different-html","lienmentalism","lienmentalism","f","j","same","1000","2000","500","null","null","true","70","2255.399999976158","rsss","lien","","ment_al_ism","lienmentalism","s","2.0","1","s","p","lienmentalipm","0"
"931","","same-different-html","17","2174447","0.0-17.0","stimuli/0.csv","true","zfvqevu3n7","","","","","","same-different-html","nunuctanoilayl","nunuctanoilayl","f","j","same","1000","2000","500","null","null","true","70","3083.399999976158","prssss","nuc","nu","ta_noi_la_yl","nunuctanoilayl","s","3.0","1","l","w","nunuctanoilayw","0"
"671.2999999523163","","same-different-html","18","2177915","0.0-18.0","stimuli/0.csv","true","zfvqevu3n7","","","","","","same-different-html","tonpessn","tonpessn","f","j","same","1000","2000","500","null","null","true","70","993.6000000238419","rs","tonp","","essn","tonpessn","r","","1","o","e","tenpessn","0"
"503.2000000476837","","same-different-html","19","2181208","0.0-19.0","stimuli/0.csv","true","zfvqevu3n7","","","","","","same-different-html","ramless","ramless","f","j","same","1000","2000","500","null","null","true","70","892.7000000476837","rs","ram","","less","ramless","r","","1","a","o","romless","0"
"830.7000000476837","","same-different-html","20","2184743","0.0-20.0","stimuli/0.csv","true","zfvqevu3n7","","","","","","same-different-html","cetically","cetically","f","j","same","1000","2000","500","null","null","true","70","835","rsss","cet","","ic_al_ly","cetically","s","0.0","0","i","e","cetecally","0"
"775.2000000476837","","same-different-html","21","2190500","0.0-21.0","stimuli/0.csv","true","zfvqevu3n7","","","","","","same-different-html","onnriekeviyl","onnriekeviyl","f","j","same","1000","2000","500","null","null","true","70","3176.5999999046326","prss","riek","onn","evi_yl","onnriekeviyl","s","0.0","2","i","e","onnriekeveyl","0"
"3757.100000023842","","same-different-html","22","2200312","0.0-22.0","stimuli/0.csv","true","zfvqevu3n7","","","","","","same-different-html","sidnikeatoniyar","sidnikeatoniyer","f","j","different","1000","2000","500","null","null","false","70","4087.7999999523163","pprss","keat","sid_ni","oni_yar","sidnikeatoniyar","s","1.0","1","a","e","sidnikeatoniyer","1"
"942.6000000238419","","same-different-html","23","2207573","0.0-23.0","stimuli/0.csv","true","zfvqevu3n7","","","","","","same-different-html","erednucnemt","emednucnemt","f","j","different","1000","2000","500","null","null","true","74","4057.600000023842","pprs","nuc","er_ed","nemt","erednucnemt","p","0.0","1","r","m","emednucnemt","1"
"812.2999999523163","","same-different-html","24","2211163","0.0-24.0","stimuli/0.csv","true","zfvqevu3n7","","","","","","same-different-html","bodant","botant","f","j","different","1000","2000","500","null","null","false","70","935.8000000715256","rs","bod","","ant","bodant","r","","2","d","t","botant","1"
"1549","","same-different-html","25","2218372","0.0-25.0","stimuli/0.csv","true","zfvqevu3n7","","","","","","same-different-html","retincolg","retincolg","f","j","same","1000","2000","500","null","null","true","70","1193.8000000715256","pr","colg","retin","","retincolg","r","","1","o","i","retincilg","0"
"436","","same-different-html","26","2221292","0.0-26.0","stimuli/0.csv","true","zfvqevu3n7","","","","","","same-different-html","xenol","xenol","f","j","same","1000","2000","500","null","null","true","70","690.1000000238419","pr","nol","xe","","xenol","p","0.0","1","e","a","xanol","0"
"864.2999999523163","","same-different-html","27","2227626","0.0-27.0","stimuli/0.csv","true","zfvqevu3n7","","","","","","same-different-html","nuriektasitciyl","niriektasitciyl","f","j","different","1000","2000","500","null","null","true","74","3653","prssss","riek","nu","ta_sit_ci_yl","nuriektasitciyl","p","0.0","1","u","i","niriektasitciyl","1"
"944.8999999761581","","same-different-html","28","2232011","0.0-28.0","stimuli/0.csv","true","zfvqevu3n7","","","","","","same-different-html","cetalisticly","cetalisticly","f","j","same","1000","2000","500","null","null","true","70","1669.7000000476837","rssss","cet","","al_ist_ic_ly","cetalisticly","s","3.0","1","y","r","cetalisticlr","0"
"2322.399999976158","","same-different-html","29","2239585","0.0-29.0","stimuli/0.csv","true","zfvqevu3n7","","","","","","same-different-html","imdarficablity","imdarficablity","f","j","same","1000","2000","500","null","null","true","70","3326.2000000476837","prsss","darf","im","ic_abl_ity","imdarficablity","r","","0","d","h","imharficablity","0"
"2839.100000023842","","same-different-html","30","2249155","0.0-30.0","stimuli/0.csv","true","zfvqevu3n7","","","","","","same-different-html","onnerfradviyti","onnerfradviyti","f","j","same","1000","2000","500","null","null","true","70","4765.700000047684","pprss","frad","onn_er","vi_yti","onnerfradviyti","s","1.0","0","y","n","onnerfradvinti","0"
"838.1999999284744","","same-different-html","31","2255593","0.0-31.0","stimuli/0.csv","true","zfvqevu3n7","","","","","","same-different-html","nudobbalyti","nadobbalyti","f","j","different","1000","2000","500","null","null","true","74","3594.7000000476837","prss","dob","nu","bal_yti","nudobbalyti","p","0.0","1","u","a","nadobbalyti","1"
"1843.4000000953674","","same-different-html","32","2261155","0.0-32.0","stimuli/0.csv","true","zfvqevu3n7","","","","","","same-different-html","ernitekacne","ernitekacne","f","j","same","1000","2000","500","null","null","true","70","1904.2000000476837","pprs","tek","er_ni","acne","ernitekacne","p","1.0","0","n","m","ermitekacne","0"
"627.6999999284744","","same-different-html","33","2264564","0.0-33.0","stimuli/0.csv","true","zfvqevu3n7","","","","","","same-different-html","erpneil","orpneil","f","j","different","1000","2000","500","null","null","true","74","856","pr","neil","erp","","erpneil","p","0.0","0","e","o","orpneil","1"
"1138.2999999523163","","same-different-html","34","2268680","0.0-34.0","stimuli/0.csv","true","zfvqevu3n7","","","","","","same-different-html","mispontation","mispontation","f","j","same","1000","2000","500","null","null","true","70","1137.5","prss","pont","mis","at_ion","mispontation","r","","2","n","m","mispomtation","0"
"965.6000000238419","","same-different-html","35","2275389","0.0-35.0","stimuli/0.csv","true","zfvqevu3n7","","","","","","same-different-html","ernimarnemt","ernimarnemg","f","j","different","1000","2000","500","null","null","true","74","3808.2999999523163","pprs","mar","er_ni","nemt","ernimarnemt","s","0.0","3","t","g","ernimarnemg","1"
"578.6000000238419","","same-different-html","36","2278405","0.0-36.0","stimuli/0.csv","true","zfvqevu3n7","","","","","","same-different-html","moror","moror","f","j","same","1000","2000","500","null","null","true","70","625.9000000953674","rs","mor","","or","moror","r","","1","o","u","muror","0"
"636.8999999761581","","same-different-html","37","2282087","0.0-37.0","stimuli/0.csv","true","zfvqevu3n7","","","","","","same-different-html","misiwyl","misiwyl","f","j","same","1000","2000","500","null","null","true","70","1253.7000000476837","prs","siw","mi","yl","misiwyl","s","0.0","1","l","r","misiwyr","0"
"623.8999999761581","","same-different-html","38","2285171","0.0-38.0","stimuli/0.csv","true","zfvqevu3n7","","","","","","same-different-html","edmarre","odmarre","f","j","different","1000","2000","500","null","null","true","74","646.7000000476837","prs","mar","ed","re","edmarre","p","0.0","0","e","o","odmarre","1"
"689.2999999523163","","same-different-html","39","2287787","0.0-39.0","stimuli/0.csv","true","zfvqevu3n7","","","","","","same-different-html","krewationalist","krerationalist","f","j","different","1000","2000","500","null","null","true","74","191","rssss","krew","","at_ion_al_ist","krewationalist","r","","3","w","r","krerationalist","1"
"928","","same-different-html","40","2291214","0.0-40.0","stimuli/0.csv","true","zfvqevu3n7","","","","","","same-different-html","ermisiwelba","ermisiwelbo","f","j","different","1000","2000","500","null","null","true","74","117.69999992847443","pprs","siw","er_mi","elba","ermisiwelba","s","0.0","3","a","o","ermisiwelbo","1"
"588.2000000476837","","same-different-html","41","2295203","0.0-41.0","stimuli/0.csv","true","zfvqevu3n7","","","","","","same-different-html","reamable","reimable","f","j","different","1000","2000","500","null","null","true","74","990.8999999761581","rs","ream","","able","reamable","r","","2","a","i","reimable","1"
"1752.7000000476837","","same-different-html","42","2300104","0.0-42.0","stimuli/0.csv","true","zfvqevu3n7","","","","","","same-different-html","discetful","discepful","f","j","different","1000","2000","500","null","null","true","74","1227.5999999046326","prs","cet","dis","ful","discetful","r","","2","t","p","discepful","1"
"657.9000000953674","","same-different-html","43","2303637","0.0-43.0","stimuli/0.csv","true","zfvqevu3n7","","","","","","same-different-html","reingloc","reinglac","f","j","different","1000","2000","500","null","null","true","74","858.6000000238419","ppr","gloc","re_in","","reingloc","r","","2","o","a","reinglac","1"
"522.7000000476837","","same-different-html","44","2306504","0.0-44.0","stimuli/0.csv","true","zfvqevu3n7","","","","","","same-different-html","unteak","untaak","f","j","different","1000","2000","500","null","null","true","74","647.3999999761581","pr","teak","un","","unteak","r","","1","e","a","untaak","1"
"1836.4000000953674","","same-different-html","45","2312253","0.0-45.0","stimuli/0.csv","true","zfvqevu3n7","","","","","","same-different-html","sidnitrigoniyar","sidnitrigoniyar","f","j","same","1000","2000","500","null","null","true","70","2179.0999999046326","pprss","trig","sid_ni","oni_yar","sidnitrigoniyar","s","1.0","0","y","n","sidnitrigoninar","0"
"715.3999999761581","","same-different-html","46","2315898","0.0-46.0","stimuli/0.csv","true","zfvqevu3n7","","","","","","same-different-html","intergeed","inhergeed","f","j","different","1000","2000","500","null","null","true","74","984.3999999761581","pr","geed","inter","","intergeed","p","0.0","2","t","h","inhergeed","1"
"1436.2999999523163","","same-different-html","47","2323055","0.0-47.0","stimuli/0.csv","true","zfvqevu3n7","","","","","","same-different-html","louktainolayl","leuktainolayl","f","j","different","1000","2000","500","null","null","true","74","3664.9000000953674","rssss","louk","","ta_ino_la_yl","louktainolayl","r","","1","o","e","leuktainolayl","1"
"1674.5","","same-different-html","48","2328690","0.0-48.0","stimuli/0.csv","true","zfvqevu3n7","","","","","","same-different-html","belsistically","belsisticalmy","f","j","different","1000","2000","500","null","null","false","70","1926.2000000476837","rssss","bels","","ist_ic_al_ly","belsistically","s","3.0","0","l","m","belsisticalmy","1"
"800.6999999284744","","same-different-html","49","2338706","0.0-49.0","stimuli/0.csv","true","zfvqevu3n7","","","","","","same-different-html","tecsitcieta","techitcieta","f","j","different","1000","2000","500","null","null","true","74","6986.399999976158","rsss","tec","","sit_ci_eta","tecsitcieta","s","0.0","0","s","h","techitcieta","1"
"1410.3999999761581","","same-different-html","50","2345488","0.0-50.0","stimuli/0.csv","true","zfvqevu3n7","","","","","","same-different-html","redarfively","redarfively","f","j","same","1000","2000","500","null","null","true","70","3570.2999999523163","prss","darf","re","ive_ly","redarfively","s","1.0","1","y","r","redarfivelr","0"
"1021.2999999523163","","same-different-html","51","2351637","0.0-51.0","stimuli/0.csv","true","zfvqevu3n7","","","","","","same-different-html","remispookment","rumispookment","f","j","different","1000","2000","500","null","null","true","74","3164.6999999284744","pprs","pook","re_mis","ment","remispookment","p","0.0","1","e","u","rumispookment","1"
"1408.6000000238419","","same-different-html","52","2356915","0.0-52.0","stimuli/0.csv","true","zfvqevu3n7","","","","","","same-different-html","marlazei","marlazei","f","j","same","1000","2000","500","null","null","true","70","1925.1000000238419","rss","mar","","la_zei","marlazei","s","1.0","1","e","o","marlazoi","0"
"1277.2000000476837","","same-different-html","53","2360981","0.0-53.0","stimuli/0.csv","true","zfvqevu3n7","","","","","","same-different-html","cunically","cunically","f","j","same","1000","2000","500","null","null","true","70","856.8999999761581","rsss","cun","","ic_al_ly","cunically","s","0.0","0","i","a","cunacally","0"
"1132.1000000238419","","same-different-html","54","2365516","0.0-54.0","stimuli/0.csv","true","zfvqevu3n7","","","","","","same-different-html","toutekneyl","touteknayl","f","j","different","1000","2000","500","null","null","true","74","1478.1999999284744","prss","tek","tou","ne_yl","toutekneyl","s","0.0","1","e","a","touteknayl","1"
"1404.3000000715256","","same-different-html","55","2372871","0.0-55.0","stimuli/0.csv","true","zfvqevu3n7","","","","","","same-different-html","martainolasim","martainolasim","f","j","same","1000","2000","500","null","null","true","70","4162.200000047684","rssss","mar","","ta_ino_la_sim","martainolasim","r","","2","r","m","mamtainolasim","0"
"874.0999999046326","","same-different-html","56","2376995","0.0-56.0","stimuli/0.csv","true","zfvqevu3n7","","","","","","same-different-html","unketistically","unketistically","f","j","same","1000","2000","500","null","null","true","70","1309.7000000476837","prssss","ket","un","ist_ic_al_ly","unketistically","p","0.0","1","n","m","umketistically","0"
"1033.5","","same-different-html","57","2382436","0.0-57.0","stimuli/0.csv","true","zfvqevu3n7","","","","","","same-different-html","disinnegiously","disinnegiously","f","j","same","1000","2000","500","null","null","true","70","2400.5","pprss","neg","dis_in","ious_ly","disinnegiously","s","0.0","3","s","p","disinnegiouply","0"
"692.2000000476837","","same-different-html","58","2386348","0.0-58.0","stimuli/0.csv","true","zfvqevu3n7","","","","","","same-different-html","disinsoomant","dihinsoomant","f","j","different","1000","2000","500","null","null","true","74","1354.9000000953674","pprs","soom","dis_in","ant","disinsoomant","p","0.0","2","s","h","dihinsoomant","1"
"612.6000000238419","","same-different-html","59","2389995","0.0-59.0","stimuli/0.csv","true","zfvqevu3n7","","","","","","same-different-html","reamistically","meamistically","f","j","different","1000","2000","500","null","null","false","70","1134.5","rssss","ream","","ist_ic_al_ly","reamistically","r","","0","r","m","meamistically","1"
"1139.5","","same-different-html","60","2400230","0.0-60.0","stimuli/0.csv","true","zfvqevu3n7","","","","","","same-different-html","infomivation","imfomivation","f","j","different","1000","2000","500","null","null","false","70","3045.399999976158","prsss","fom","in","iv_at_ion","infomivation","p","0.0","1","n","m","imfomivation","1"
"1097.2000000476837","","same-different-html","61","2405100","0.0-61.0","stimuli/0.csv","true","zfvqevu3n7","","","","","","same-different-html","simneilnemt","simneilwemt","f","j","different","1000","2000","500","null","null","true","74","1765.4000000953674","prs","neil","sim","nemt","simneilnemt","s","0.0","0","n","w","simneilwemt","1"
"1101.1000000238419","","same-different-html","62","2409149","0.0-62.0","stimuli/0.csv","true","zfvqevu3n7","","","","","","same-different-html","reinneg","reinreg","f","j","different","1000","2000","500","null","null","true","74","1124.0999999046326","ppr","neg","re_in","","reinneg","r","","0","n","r","reinreg","1"
"1568","","same-different-html","63","2414203","0.0-63.0","stimuli/0.csv","true","zfvqevu3n7","","","","","","same-different-html","cetistically","cetistitally","f","j","different","1000","2000","500","null","null","true","74","1578.4000000953674","rssss","cet","","ist_ic_al_ly","cetistically","s","1.0","1","c","t","cetistitally","1"
"1101.7000000476837","","same-different-html","64","2420365","0.0-64.0","stimuli/0.csv","true","zfvqevu3n7","","","","","","same-different-html","prasationally","prasahionally","f","j","different","1000","2000","500","null","null","true","74","2397.2999999523163","rssss","pras","","at_ion_al_ly","prasationally","s","0.0","1","t","h","prasahionally","1"
"1087.4000000953674","","same-different-html","65","2431539","0.0-65.0","stimuli/0.csv","true","zfvqevu3n7","","","","","","same-different-html","edteclazitanoi","edteclatitanoi","f","j","different","1000","2000","500","null","null","true","74","8125.799999952316","prssss","tec","ed","la_zi_ta_noi","edteclazitanoi","s","1.0","0","z","t","edteclatitanoi","1"
"822.8999999761581","","same-different-html","66","2435715","0.0-66.0","stimuli/0.csv","true","zfvqevu3n7","","","","","","same-different-html","pontationally","pontationally","f","j","same","1000","2000","500","null","null","true","70","1314.1000000238419","rssss","pont","","at_ion_al_ly","pontationally","r","","1","o","a","pantationally","0"
"827.1999999284744","","same-different-html","67","2440171","0.0-67.0","stimuli/0.csv","true","zfvqevu3n7","","","","","","same-different-html","nonketively","nonketively","f","j","same","1000","2000","500","null","null","true","70","1705.3999999761581","prss","ket","non","ive_ly","nonketively","p","0.0","1","o","e","nenketively","0"
"640.3000000715256","","same-different-html","68","2443326","0.0-68.0","stimuli/0.csv","true","zfvqevu3n7","","","","","","same-different-html","romsit","ramsit","f","j","different","1000","2000","500","null","null","true","74","701.4000000953674","rs","rom","","sit","romsit","r","","1","o","a","ramsit","1"
"991.2999999523163","","same-different-html","69","2447726","0.0-69.0","stimuli/0.csv","true","zfvqevu3n7","","","","","","same-different-html","sidreemyti","sidreemyti","f","j","same","1000","2000","500","null","null","true","70","1648.8999999761581","prs","reem","sid","yti","sidreemyti","p","0.0","1","i","e","sedreemyti","0"
"908.3999999761581","","same-different-html","70","2451938","0.0-70.0","stimuli/0.csv","true","zfvqevu3n7","","","","","","same-different-html","selblatiy","solblatiy","f","j","different","1000","2000","500","null","null","false","70","1431.3000000715256","rss","selb","","la_tiy","selblatiy","r","","1","e","o","solblatiy","1"
"1081.7000000476837","","same-different-html","71","2458391","0.0-71.0","stimuli/0.csv","true","zfvqevu3n7","","","","","","same-different-html","unmispookably","unmispookably","f","j","same","1000","2000","500","null","null","true","70","3486.5","pprss","pook","un_mis","abl_y","unmispookably","p","1.0","2","s","t","unmitpookably","0"
"830.3999999761581","","same-different-html","72","2463971","0.0-72.0","stimuli/0.csv","true","zfvqevu3n7","","","","","","same-different-html","inkoulivation","inkoulivation","f","j","same","1000","2000","500","null","null","true","70","2972.6999999284744","prsss","koul","in","iv_at_ion","inkoulivation","p","0.0","0","i","u","unkoulivation","0"
"1721.7999999523163","","same-different-html","73","2472227","0.0-73.0","stimuli/0.csv","true","zfvqevu3n7","","","","","","same-different-html","keatnemtlasim","keatnemtrasim","f","j","different","1000","2000","500","null","null","true","74","4740.900000095367","rsss","keat","","nemt_la_sim","keatnemtlasim","s","1.0","0","l","r","keatnemtrasim","1"
"880.5","","same-different-html","74","2476067","0.0-74.0","stimuli/0.csv","true","zfvqevu3n7","","","","","","same-different-html","talcro","talcro","f","j","same","1000","2000","500","null","null","true","70","1009.4000000953674","rs","talc","","ro","talcro","s","0.0","0","r","m","talcmo","0"
"1690.7999999523163","","same-different-html","75","2483787","0.0-75.0","stimuli/0.csv","true","zfvqevu3n7","","","","","","same-different-html","edtalclazitanoi","edtalclazitanoi","f","j","same","1000","2000","500","null","null","true","70","4080.600000023842","prssss","talc","ed","la_zi_ta_noi","edtalclazitanoi","s","3.0","1","o","e","edtalclazitanei","0"
"937.8999999761581","","same-different-html","76","2488463","0.0-76.0","stimuli/0.csv","true","zfvqevu3n7","","","","","","same-different-html","presoomically","preseomically","f","j","different","1000","2000","500","null","null","true","74","1894.8999999761581","prsss","soom","pre","ic_al_ly","presoomically","r","","1","o","e","preseomically","1"
"800.9000000953674","","same-different-html","77","2491889","0.0-77.0","stimuli/0.csv","true","zfvqevu3n7","","","","","","same-different-html","koopnemt","koopnelt","f","j","different","1000","2000","500","null","null","true","74","840","rs","koop","","nemt","koopnemt","s","0.0","2","m","l","koopnelt","1"
"764.3999999761581","","same-different-html","78","2496286","0.0-78.0","stimuli/0.csv","true","zfvqevu3n7","","","","","","same-different-html","reoutgirt","reoutgirt","f","j","same","1000","2000","500","null","null","true","70","1881.6999999284744","ppr","girt","re_out","","reoutgirt","r","","0","g","t","reouttirt","0"
"1158.6000000238419","","same-different-html","79","2502034","0.0-79.0","stimuli/0.csv","true","zfvqevu3n7","","","","","","same-different-html","riekisousens","riekisousens","f","j","same","1000","2000","500","null","null","true","70","2657.100000023842","rss","riek","","isou_sens","riekisousens","r","","3","k","t","rietisousens","0"
"1303.5","","same-different-html","80","2506546","0.0-80.0","stimuli/0.csv","true","zfvqevu3n7","","","","","","same-different-html","fradcilayl","fladcilayl","f","j","different","1000","2000","500","null","null","true","74","1483.5999999046326","rsss","frad","","ci_la_yl","fradcilayl","r","","1","r","l","fladcilayl","1"
"1205.1000000238419","","same-different-html","81","2511566","0.0-81.0","stimuli/0.csv","true","zfvqevu3n7","","","","","","same-different-html","neillibatiy","neillibatiy","f","j","same","1000","2000","500","null","null","true","70","2069.7999999523163","rss","neil","","liba_tiy","neillibatiy","s","1.0","0","t","p","neillibapiy","0"
"968.6000000238419","","same-different-html","82","2515572","0.0-82.0","stimuli/0.csv","true","zfvqevu3n7","","","","","","same-different-html","ersidtek","ersedtek","f","j","different","1000","2000","500","null","null","true","74","1253.7999999523163","ppr","tek","er_sid","","ersidtek","p","1.0","1","i","e","ersedtek","1"
"1248.2999999523163","","same-different-html","83","2520748","0.0-83.0","stimuli/0.csv","true","zfvqevu3n7","","","","","","same-different-html","nusimneilbaly","nusimneilbaly","f","j","same","1000","2000","500","null","null","true","70","1767.5","pprss","neil","nu_sim","bal_y","nusimneilbaly","p","1.0","2","m","y","nusiyneilbaly","0"
"1327","","same-different-html","84","2528159","0.0-84.0","stimuli/0.csv","true","zfvqevu3n7","","","","","","same-different-html","dekrewationalism","dekrewationalism","f","j","same","1000","2000","500","null","null","true","70","4295.200000047684","prssss","krew","de","at_ion_al_ism","dekrewationalism","s","0.0","1","t","s","dekrewasionalism","0"
"969","","same-different-html","85","2532284","0.0-85.0","stimuli/0.csv","true","zfvqevu3n7","","","","","","same-different-html","imlonically","imlomically","f","j","different","1000","2000","500","null","null","true","74","1317.1000000238419","prsss","lon","im","ic_al_ly","imlonically","r","","2","n","m","imlomically","1"
"1432.3999999761581","","same-different-html","86","2536690","0.0-86.0","stimuli/0.csv","true","zfvqevu3n7","","","","","","same-different-html","exlon","exwon","f","j","different","1000","2000","500","null","null","false","70","967.2999999523163","pr","lon","ex","","exlon","r","","0","l","w","exwon","1"
"891.3999999761581","","same-different-html","87","2548147","0.0-87.0","stimuli/0.csv","true","zfvqevu3n7","","","","","","same-different-html","prepont","grepont","f","j","different","1000","2000","500","null","null","true","74","795","pr","pont","pre","","prepont","p","0.0","0","p","g","grepont","1"
"881.5999999046326","","same-different-html","88","2552404","0.0-88.0","stimuli/0.csv","true","zfvqevu3n7","","","","","","same-different-html","sidsarpre","sidsarpre","f","j","same","1000","2000","500","null","null","true","70","1605.3999999761581","prs","sarp","sid","re","sidsarpre","r","","3","p","d","sidsardre","0"
"1153.2999999523163","","same-different-html","89","2561947","0.0-89.0","stimuli/0.csv","true","zfvqevu3n7","","","","","","same-different-html","misarpcilayl","misarpcilayl","f","j","same","1000","2000","500","null","null","true","70","6595.200000047684","prsss","sarp","mi","ci_la_yl","misarpcilayl","r","","2","r","m","misampcilayl","0"
"751.2999999523163","","same-different-html","90","2565589","0.0-90.0","stimuli/0.csv","true","zfvqevu3n7","","","","","","same-different-html","unikrew","unikrew","f","j","same","1000","2000","500","null","null","true","70","970.7999999523163","pr","krew","uni","","unikrew","p","0.0","2","i","a","unakrew","0"
"966.3000000715256","","same-different-html","91","2569778","0.0-91.0","stimuli/0.csv","true","zfvqevu3n7","","","","","","same-different-html","unkrewistically","ulkrewistically","f","j","different","1000","2000","500","null","null","true","74","1496.5999999046326","prssss","krew","un","ist_ic_al_ly","unkrewistically","p","0.0","1","n","l","ulkrewistically","1"
"571.1000000238419","","same-different-html","92","2573083","0.0-92.0","stimuli/0.csv","true","zfvqevu3n7","","","","","","same-different-html","redeclat","redeclat","f","j","same","1000","2000","500","null","null","true","70","1030.1999999284744","ppr","clat","re_de","","redeclat","r","","0","c","p","redeplat","0"
"864","","same-different-html","93","2576846","0.0-93.0","stimuli/0.csv","true","zfvqevu3n7","","","","","","same-different-html","dismority","dismority","f","j","same","1000","2000","500","null","null","true","70","1009.1999999284744","prs","mor","dis","ity","dismority","s","0.0","2","y","w","dismoritw","0"
"414.5","","same-different-html","94","2580226","0.0-94.0","stimuli/0.csv","true","zfvqevu3n7","","","","","","same-different-html","meerfulness","meerfulness","f","j","same","1000","2000","500","null","null","true","70","1101.7000000476837","rss","meer","","ful_ness","meerfulness","r","","0","m","y","yeerfulness","0"
"738.1999999284744","","same-different-html","95","2586260","0.0-95.0","stimuli/0.csv","true","zfvqevu3n7","","","","","","same-different-html","nuselbouisyl","nuselbouisyl","f","j","same","1000","2000","500","null","null","true","70","3374","prss","selb","nu","ouis_yl","nuselbouisyl","p","0.0","0","n","y","yuselbouisyl","0"
"518.6999999284744","","same-different-html","96","2589600","0.0-96.0","stimuli/0.csv","true","zfvqevu3n7","","","","","","same-different-html","reemlasim","reemlasim","f","j","same","1000","2000","500","null","null","true","70","1242.2000000476837","rss","reem","","la_sim","reemlasim","s","0.0","1","a","e","reemlesim","0"
"601.3999999761581","","same-different-html","97","2592680","0.0-97.0","stimuli/0.csv","true","zfvqevu3n7","","","","","","same-different-html","upram","upmam","f","j","different","1000","2000","500","null","null","true","74","661.8999999761581","pr","ram","up","","upram","r","","0","r","m","upmam","1"
"639.8999999761581","","same-different-html","98","2595899","0.0-98.0","stimuli/0.csv","true","zfvqevu3n7","","","","","","same-different-html","morly","morly","f","j","same","1000","2000","500","null","null","true","70","815.7000000476837","rs","mor","","ly","morly","s","0.0","0","l","m","mormy","0"
"699.7000000476837","","same-different-html","99","2599201","0.0-99.0","stimuli/0.csv","true","zfvqevu3n7","","","","","","same-different-html","ernidob","ernidot","f","j","different","1000","2000","500","null","null","true","74","710.5","ppr","dob","er_ni","","ernidob","r","","2","b","t","ernidot","1"
"1850.8999999761581","","same-different-html","100","2604564","0.0-100.0","stimuli/0.csv","true","zfvqevu3n7","","","","","","same-different-html","sidnineiloni","sidnineiloni","f","j","same","1000","2000","500","null","null","true","70","1744","pprs","neil","sid_ni","oni","sidnineiloni","r","","3","l","r","sidnineironi","0"
"755.1999999284744","","same-different-html","101","2609306","0.0-101.0","stimuli/0.csv","true","zfvqevu3n7","","","","","","same-different-html","mikeatcilbatiy","mikaatcilbatiy","f","j","different","1000","2000","500","null","null","true","74","2233.7000000476837","prsss","keat","mi","ci_lba_tiy","mikeatcilbatiy","r","","1","e","a","mikaatcilbatiy","1"
"672.3000000715256","","same-different-html","102","2613221","0.0-102.0","stimuli/0.csv","true","zfvqevu3n7","","","","","","same-different-html","negalisticly","negalisticly","f","j","same","1000","2000","500","null","null","true","70","1531.1000000238419","rssss","neg","","al_ist_ic_ly","negalisticly","r","","0","n","l","legalisticly","0"
"864.8999999761581","","same-different-html","103","2617776","0.0-103.0","stimuli/0.csv","true","zfvqevu3n7","","","","","","same-different-html","imteakly","imteakry","f","j","different","1000","2000","500","null","null","true","74","1436.2000000476837","prs","teak","im","ly","imteakly","s","0.0","0","l","r","imteakry","1"
"931.3999999761581","","same-different-html","104","2622471","0.0-104.0","stimuli/0.csv","true","zfvqevu3n7","","","","","","same-different-html","inprasiveness","invrasiveness","f","j","different","1000","2000","500","null","null","true","74","1847.6000000238419","prss","pras","in","ive_ness","inprasiveness","r","","0","p","v","invrasiveness","1"
"884.3000000715256","","same-different-html","105","2627976","0.0-105.0","stimuli/0.csv","true","zfvqevu3n7","","","","","","same-different-html","tonpnemt","tonpnemt","f","j","same","1000","2000","500","null","null","true","70","2664.3000000715256","rs","tonp","","nemt","tonpnemt","s","0.0","0","n","m","tonpmemt","0"
"733.8999999761581","","same-different-html","106","2632058","0.0-106.0","stimuli/0.csv","true","zfvqevu3n7","","","","","","same-different-html","remisgloc","remisgloc","f","j","same","1000","2000","500","null","null","true","70","1505.1999999284744","ppr","gloc","re_mis","","remisgloc","p","0.0","0","r","y","yemisgloc","0"
"829.6999999284744","","same-different-html","107","2635663","0.0-107.0","stimuli/0.csv","true","zfvqevu3n7","","","","","","same-different-html","kooptan","kooptam","f","j","different","1000","2000","500","null","null","true","74","876.5","rs","koop","","tan","kooptan","s","0.0","2","n","m","kooptam","1"
"945.5","","same-different-html","108","2640434","0.0-108.0","stimuli/0.csv","true","zfvqevu3n7","","","","","","same-different-html","erpsiwcilayl","erpsiwcilayl","f","j","same","1000","2000","500","null","null","false","74","2101.6999999284744","prsss","siw","erp","ci_la_yl","erpsiwcilayl","r","","2","w","y","erpsiycilayl","0"
"870.3999999761581","","same-different-html","109","2646598","0.0-109.0","stimuli/0.csv","true","zfvqevu3n7","","","","","","same-different-html","nukooptanoilayl","nucooptanoilayl","f","j","different","1000","2000","500","null","null","true","74","201.10000002384186","prssss","koop","nu","ta_noi_la_yl","nukooptanoilayl","r","","0","k","c","nucooptanoilayl","1"
"1022.0999999046326","","same-different-html","110","2652474","0.0-110.0","stimuli/0.csv","true","zfvqevu3n7","","","","","","same-different-html","nusarptasitciyl","nusarptasitciyl","f","j","same","1000","2000","500","null","null","false","74","2997.7000000476837","prssss","sarp","nu","ta_sit_ci_yl","nusarptasitciyl","p","0.0","1","u","i","nisarptasitciyl","0"
"529.4000000953674","","same-different-html","111","2655759","0.0-111.0","stimuli/0.csv","true","zfvqevu3n7","","","","","","same-different-html","overwis","overwis","f","j","same","1000","2000","500","null","null","true","70","884.5999999046326","pr","wis","over","","overwis","r","","1","i","e","overwes","0"
"886.5","","same-different-html","112","2661041","0.0-112.0","stimuli/0.csv","true","zfvqevu3n7","","","","","","same-different-html","onnmooscilayl","onnmooscilayl","f","j","same","1000","2000","500","null","null","true","70","2526.899999976158","prsss","moos","onn","ci_la_yl","onnmooscilayl","s","2.0","1","l","w","onnmooscilayw","0"
"912.2000000476837","","same-different-html","113","2664991","0.0-113.0","stimuli/0.csv","true","zfvqevu3n7","","","","","","same-different-html","negiously","regiously","f","j","different","1000","2000","500","null","null","true","74","1104.1000000238419","rss","neg","","ious_ly","negiously","r","","0","n","r","regiously","1"
"1049.2999999523163","","same-different-html","114","2668794","0.0-114.0","stimuli/0.csv","true","zfvqevu3n7","","","","","","same-different-html","sidnautyl","sidnaugyl","f","j","different","1000","2000","500","null","null","true","74","999.6999999284744","prs","naut","sid","yl","sidnautyl","r","","3","t","g","sidnaugyl","1"
"833.5999999046326","","same-different-html","115","2673100","0.0-115.0","stimuli/0.csv","true","zfvqevu3n7","","","","","","same-different-html","depookization","gepookization","f","j","different","1000","2000","500","null","null","true","74","1372.8000000715256","prsss","pook","de","iz_at_ion","depookization","p","0.0","0","d","g","gepookization","1"
"517.3000000715256","","same-different-html","116","2676031","0.0-116.0","stimuli/0.csv","true","zfvqevu3n7","","","","","","same-different-html","moosla","moosla","f","j","same","1000","2000","500","null","null","true","70","594.5","rs","moos","","la","moosla","r","","1","o","i","miosla","0"
"1113","","same-different-html","117","2680126","0.0-117.0","stimuli/0.csv","true","zfvqevu3n7","","","","","","same-different-html","inmorate","inmorate","f","j","same","1000","2000","500","null","null","true","70","975.5","prs","mor","in","ate","inmorate","s","0.0","1","t","d","inmorade","0"
"709.9000000953674","","same-different-html","118","2682930","0.0-118.0","stimuli/0.csv","true","zfvqevu3n7","","","","","","same-different-html","imkeiricablity","imkeiricablity","f","j","same","1000","2000","500","null","null","true","70","237.39999997615814","prsss","keir","im","ic_abl_ity","imkeiricablity","s","1.0","0","a","i","imkeiriciblity","0"
"859.3999999761581","","same-different-html","119","2686730","0.0-119.0","stimuli/0.csv","true","zfvqevu3n7","","","","","","same-different-html","reinmorance","reinmerance","f","j","different","1000","2000","500","null","null","true","74","887.6999999284744","pprs","mor","re_in","ance","reinmorance","r","","1","o","e","reinmerance","1"
"1070.3999999761581","","same-different-html","120","2691051","0.0-120.0","stimuli/0.csv","true","zfvqevu3n7","","","","","","same-different-html","progeedion","progeedion","f","j","same","1000","2000","500","null","null","true","70","1247.2999999523163","prs","geed","pro","ion","progeedion","r","","3","d","s","progeesion","0"
"2758.7000000476837","","same-different-html","121","2698781","0.0-121.0","stimuli/0.csv","true","zfvqevu3n7","","","","","","same-different-html","onnerdobviyti","onnerdobveyti","f","j","different","1000","2000","500","null","null","true","74","3037.8000000715256","pprss","dob","onn_er","vi_yti","onnerdobviyti","s","0.0","1","i","e","onnerdobveyti","1"
"569.7999999523163","","same-different-html","122","2702116","0.0-122.0","stimuli/0.csv","true","zfvqevu3n7","","","","","","same-different-html","teakless","teaklesh","f","j","different","1000","2000","500","null","null","true","74","776.3999999761581","rs","teak","","less","teakless","s","0.0","3","s","h","teaklesh","1"
"841.8000000715256","","same-different-html","123","2706773","0.0-123.0","stimuli/0.csv","true","zfvqevu3n7","","","","","","same-different-html","disinsoomiously","disinsoomiously","f","j","same","1000","2000","500","null","null","true","70","2019.6000000238419","pprss","soom","dis_in","ious_ly","disinsoomiously","r","","3","m","j","disinsoojiously","0"
"838.0999999046326","","same-different-html","124","2711951","0.0-124.0","stimuli/0.csv","true","zfvqevu3n7","","","","","","same-different-html","disglocively","disglocively","f","j","same","1000","2000","500","null","null","true","70","2438.5","prss","gloc","dis","ive_ly","disglocively","s","1.0","1","y","m","disglocivelm","0"
"588.6000000238419","","same-different-html","125","2716131","0.0-125.0","stimuli/0.csv","true","zfvqevu3n7","","","","","","same-different-html","ernirom","ernirom","f","j","same","1000","2000","500","null","null","true","70","1774.1000000238419","ppr","rom","er_ni","","ernirom","r","","1","o","u","ernirum","0"
"1166.5","","same-different-html","126","2720007","0.0-126.0","stimuli/0.csv","true","zfvqevu3n7","","","","","","same-different-html","inudob","inudob","f","j","same","1000","2000","500","null","null","true","70","929.9000000953674","pr","dob","inu","","inudob","p","0.0","0","i","u","unudob","0"
"654.7999999523163","","same-different-html","127","2725896","0.0-127.0","stimuli/0.csv","true","zfvqevu3n7","","","","","","same-different-html","dekeirivation","dekeirivation","f","j","same","1000","2000","500","null","null","true","70","3167.100000023842","prsss","keir","de","iv_at_ion","dekeirivation","s","0.0","0","i","a","dekeiravation","0"
"774.1999999284744","","same-different-html","128","2731533","0.0-128.0","stimuli/0.csv","true","zfvqevu3n7","","","","","","same-different-html","redecunment","redeconment","f","j","different","1000","2000","500","null","null","true","74","2978.2999999523163","pprs","cun","re_de","ment","redecunment","r","","1","u","o","redeconment","1"
"1540.6000000238419","","same-different-html","129","2736752","0.0-129.0","stimuli/0.csv","true","zfvqevu3n7","","","","","","same-different-html","louknemtlayl","louknemtmayl","f","j","different","1000","2000","500","null","null","false","70","1864.5","rsss","louk","","nemt_la_yl","louknemtlayl","s","1.0","0","l","m","louknemtmayl","1"
"573","","same-different-html","130","2739660","0.0-130.0","stimuli/0.csv","true","zfvqevu3n7","","","","","","same-different-html","nutektasitciyl","nutektasitciyl","f","j","same","1000","2000","500","null","null","false","74","167","prssss","tek","nu","ta_sit_ci_yl","nutektasitciyl","s","1.0","0","s","c","nutektacitciyl","0"
"1313.2999999523163","","same-different-html","131","2744591","0.0-131.0","stimuli/0.csv","true","zfvqevu3n7","","","","","","same-different-html","sidnitalconiyar","sidnitalconiyar","f","j","same","1000","2000","500","null","null","true","70","1730.3000000715256","pprss","talc","sid_ni","oni_yar","sidnitalconiyar","p","1.0","0","n","m","sidmitalconiyar","0"
"998.5","","same-different-html","132","2748480","0.0-132.0","stimuli/0.csv","true","zfvqevu3n7","","","","","","same-different-html","cunmentally","cunmenhally","f","j","different","1000","2000","500","null","null","true","74","917.5","rsss","cun","","ment_al_ly","cunmentally","s","0.0","3","t","h","cunmenhally","1"
"1172.6000000238419","","same-different-html","133","2752699","0.0-133.0","stimuli/0.csv","true","zfvqevu3n7","","","","","","same-different-html","outketishly","outketishly","f","j","same","1000","2000","500","null","null","true","70","1095.6000000238419","prss","ket","out","ish_ly","outketishly","p","0.0","0","o","a","autketishly","0"
"1148.7999999523163","","same-different-html","134","2756543","0.0-134.0","stimuli/0.csv","true","zfvqevu3n7","","","","","","same-different-html","toukoopnessen","toikoopnessen","f","j","different","1000","2000","500","null","null","false","70","907.7000000476837","prss","koop","tou","ne_ssen","toukoopnessen","p","0.0","2","u","i","toikoopnessen","1"
"755.2999999523163","","same-different-html","135","2760893","0.0-135.0","stimuli/0.csv","true","zfvqevu3n7","","","","","","same-different-html","unmorationally","unrorationally","f","j","different","1000","2000","500","null","null","true","74","1556.8999999761581","prssss","mor","un","at_ion_al_ly","unmorationally","r","","0","m","r","unrorationally","1"
"1742.7000000476837","","same-different-html","136","2766499","0.0-136.0","stimuli/0.csv","true","zfvqevu3n7","","","","","","same-different-html","colglasitciyl","colglatitciyl","f","j","different","1000","2000","500","null","null","true","74","1987.1000000238419","rssss","colg","","la_sit_ci_yl","colglasitciyl","s","1.0","0","s","t","colglatitciyl","1"
"1201.5","","same-different-html","137","2771231","0.0-137.0","stimuli/0.csv","true","zfvqevu3n7","","","","","","same-different-html","eroturiek","eroturiek","f","j","same","1000","2000","500","null","null","false","74","1572.5","ppr","riek","er_otu","","eroturiek","r","","2","e","a","eroturiak","0"
"4339.699999928474","","same-different-html","138","2779829","0.0-138.0","stimuli/0.csv","true","zfvqevu3n7","","","","","","same-different-html","nonlonively","nonlonovely","f","j","different","1000","2000","500","null","null","false","70","2113.600000023842","prss","lon","non","ive_ly","nonlonively","s","0.0","0","i","o","nonlonovely","1"
"899.5","","same-different-html","139","2783872","0.0-139.0","stimuli/0.csv","true","zfvqevu3n7","","","","","","same-different-html","unpookiously","unpookiously","f","j","same","1000","2000","500","null","null","true","70","1067.1000000238419","prss","pook","un","ious_ly","unpookiously","r","","1","o","i","unpiokiously","0"
"1015.2000000476837","","same-different-html","140","2788372","0.0-140.0","stimuli/0.csv","true","zfvqevu3n7","","","","","","same-different-html","sidnifradsioussen","sidnifradsioussen","f","j","same","1000","2000","500","null","null","true","70","1667.5","pprss","frad","sid_ni","siou_ssen","sidnifradsioussen","p","0.0","2","d","c","sicnifradsioussen","0"
"648.2000000476837","","same-different-html","141","2793129","0.0-141.0","stimuli/0.csv","true","zfvqevu3n7","","","","","","same-different-html","sidnisiwouisyl","sidnisiwouisyl","f","j","same","1000","2000","500","null","null","true","70","2135.600000023842","pprss","siw","sid_ni","ouis_yl","sidnisiwouisyl","r","","2","w","y","sidnisiyouisyl","0"
"850.7999999523163","","same-different-html","142","2797591","0.0-142.0","stimuli/0.csv","true","zfvqevu3n7","","","","","","same-different-html","dedarfization","dedarfizatiom","f","j","different","1000","2000","500","null","null","false","70","1861.6999999284744","prsss","darf","de","iz_at_ion","dedarfization","s","2.0","2","n","m","dedarfizatiom","1"
"1887.5","","same-different-html","143","2803756","0.0-143.0","stimuli/0.csv","true","zfvqevu3n7","","","","","","same-different-html","eddeegvitaino","eddeegvitaino","f","j","same","1000","2000","500","null","null","true","70","2265.5","prsss","deeg","ed","vi_ta_ino","eddeegvitaino","r","","2","e","u","eddeugvitaino","0"
"835.3999999761581","","same-different-html","144","2808239","0.0-144.0","stimuli/0.csv","true","zfvqevu3n7","","","","","","same-different-html","genouisyl","senouisyl","f","j","different","1000","2000","500","null","null","true","74","1666.8000000715256","rss","gen","","ouis_yl","genouisyl","r","","0","g","s","senouisyl","1"
"1309.3000000715256","","same-different-html","145","2812673","0.0-145.0","stimuli/0.csv","true","zfvqevu3n7","","","","","","same-different-html","sidnineilnat","sidnineilnat","f","j","same","1000","2000","500","null","null","true","70","1364.0999999046326","pprs","neil","sid_ni","nat","sidnineilnat","p","1.0","1","i","a","sidnaneilnat","0"
"812.6000000238419","","same-different-html","146","2816261","0.0-146.0","stimuli/0.csv","true","zfvqevu3n7","","","","","","same-different-html","belsless","belslesg","f","j","different","1000","2000","500","null","null","true","74","851","rs","bels","","less","belsless","s","0.0","3","s","g","belslesg","1"
"740.8000000715256","","same-different-html","147","2819437","0.0-147.0","stimuli/0.csv","true","zfvqevu3n7","","","","","","same-different-html","wisness","wisness","f","j","same","1000","2000","500","null","null","true","70","668.2999999523163","rs","wis","","ness","wisness","s","0.0","1","e","i","wisniss","0"
"713.4000000953674","","same-different-html","148","2823331","0.0-148.0","stimuli/0.csv","true","zfvqevu3n7","","","","","","same-different-html","touromneyl","touromneyl","f","j","same","1000","2000","500","null","null","true","70","1359.8000000715256","prss","rom","tou","ne_yl","touromneyl","r","","1","o","i","tourimneyl","0"
"982.1999999284744","","same-different-html","149","2827816","0.0-149.0","stimuli/0.csv","true","zfvqevu3n7","","","","","","same-different-html","disindrunionary","disindrunionary","f","j","same","1000","2000","500","null","null","true","70","1541.2999999523163","pprss","drun","dis_in","ion_ary","disindrunionary","r","","3","n","m","disindrumionary","0"
"570.3000000715256","","same-different-html","150","2830926","0.0-150.0","stimuli/0.csv","true","zfvqevu3n7","","","","","","same-different-html","negically","negically","f","j","same","1000","2000","500","null","null","true","70","708.0999999046326","rsss","neg","","ic_al_ly","negically","r","","0","n","m","megically","0"
"2055.5","","same-different-html","151","2837088","0.0-151.0","stimuli/0.csv","true","zfvqevu3n7","","","","","","same-different-html","nunautsitcilayl","nunautsitcimayl","f","j","different","1000","2000","500","null","null","true","74","2285.7999999523163","prssss","naut","nu","sit_ci_la_yl","nunautsitcilayl","s","2.0","0","l","m","nunautsitcimayl","1"
"1597.2999999523163","","same-different-html","152","2843073","0.0-152.0","stimuli/0.csv","true","zfvqevu3n7","","","","","","same-different-html","sidnigenouisyl","sidnigenouisyl","f","j","same","1000","2000","500","null","null","true","70","2421.5","pprss","gen","sid_ni","ouis_yl","sidnigenouisyl","s","1.0","1","l","n","sidnigenouisyn","0"
"870.2000000476837","","same-different-html","153","2846588","0.0-153.0","stimuli/0.csv","true","zfvqevu3n7","","","","","","same-different-html","moosro","moosra","f","j","different","1000","2000","500","null","null","true","74","616.1999999284744","rs","moos","","ro","moosro","s","0.0","1","o","a","moosra","1"
"947.2000000476837","","same-different-html","154","2851211","0.0-154.0","stimuli/0.csv","true","zfvqevu3n7","","","","","","same-different-html","imsoomicablity","imtoomicablity","f","j","different","1000","2000","500","null","null","true","74","1816","prsss","soom","im","ic_abl_ity","imsoomicablity","r","","0","s","t","imtoomicablity","1"
"691.0999999046326","","same-different-html","155","2854501","0.0-155.0","stimuli/0.csv","true","zfvqevu3n7","","","","","","same-different-html","mofsels","mofsels","f","j","same","1000","2000","500","null","null","true","70","772.3999999761581","rs","mof","","sels","mofsels","s","0.0","1","e","u","mofsuls","0"
"1932.5","","same-different-html","156","2859639","0.0-156.0","stimuli/0.csv","true","zfvqevu3n7","","","","","","same-different-html","sidnipurtnat","sidnipurtnut","f","j","different","1000","2000","500","null","null","false","70","1404.5","pprs","purt","sid_ni","nat","sidnipurtnat","s","0.0","1","a","u","sidnipurtnut","1"
"1068.6000000238419","","same-different-html","157","2863939","0.0-157.0","stimuli/0.csv","true","zfvqevu3n7","","","","","","same-different-html","nucisou","nucisou","f","j","same","1000","2000","500","null","null","true","70","1277.1000000238419","rs","nuc","","isou","nucisou","s","0.0","1","s","t","nucitou","0"
"731.6999999284744","","same-different-html","158","2867463","0.0-158.0","stimuli/0.csv","true","zfvqevu3n7","","","","","","same-different-html","dislienly","kislienly","f","j","different","1000","2000","500","null","null","true","74","815.9000000953674","prs","lien","dis","ly","dislienly","p","0.0","0","d","k","kislienly","1"
"990.5","","same-different-html","159","2871187","0.0-159.0","stimuli/0.csv","true","zfvqevu3n7","","","","","","same-different-html","unreamalisticly","enreamalisticly","f","j","different","1000","2000","500","null","null","false","70","969.8999999761581","prssss","ream","un","al_ist_ic_ly","unreamalisticly","p","0.0","0","u","e","enreamalisticly","1"
"1843.6999999284744","","same-different-html","160","2877781","0.0-160.0","stimuli/0.csv","true","zfvqevu3n7","","","","","","same-different-html","ermirieknemt","ermirieknemt","f","j","same","1000","2000","500","null","null","true","70","2899.7000000476837","pprs","riek","er_mi","nemt","ermirieknemt","s","0.0","3","t","c","ermirieknemc","0"
"479.5","","same-different-html","161","2881400","0.0-161.0","stimuli/0.csv","true","zfvqevu3n7","","","","","","same-different-html","morationally","moratianally","f","j","different","1000","2000","500","null","null","false","70","1154","rssss","mor","","at_ion_al_ly","morationally","s","1.0","1","o","a","moratianally","1"
"987.1000000238419","","same-different-html","162","2884897","0.0-162.0","stimuli/0.csv","true","zfvqevu3n7","","","","","","same-different-html","revomar","rovomar","f","j","different","1000","2000","500","null","null","true","74","637.1000000238419","pr","mar","revo","","revomar","p","0.0","1","e","o","rovomar","1"
"984.3999999761581","","same-different-html","163","2888923","0.0-163.0","stimuli/0.csv","true","zfvqevu3n7","","","","","","same-different-html","abketality","abketanity","f","j","different","1000","2000","500","null","null","false","70","1227.8000000715256","prss","ket","ab","al_ity","abketality","s","0.0","1","l","n","abketanity","1"
"722.1000000238419","","same-different-html","164","2892384","0.0-164.0","stimuli/0.csv","true","zfvqevu3n7","","","","","","same-different-html","negality","negality","f","j","same","1000","2000","500","null","null","true","70","602.8999999761581","rss","neg","","al_ity","negality","r","","0","n","l","legality","0"
"1265.0999999046326","","same-different-html","165","2897452","0.0-165.0","stimuli/0.csv","true","zfvqevu3n7","","","","","","same-different-html","undrunalisticly","undrunalisticlr","f","j","different","1000","2000","500","null","null","true","74","2031.6999999284744","prssss","drun","un","al_ist_ic_ly","undrunalisticly","s","3.0","1","y","r","undrunalisticlr","1"
"625.7000000476837","","same-different-html","166","2900734","0.0-166.0","stimuli/0.csv","true","zfvqevu3n7","","","","","","same-different-html","nudob","nudab","f","j","different","1000","2000","500","null","null","true","74","590.5","pr","dob","nu","","nudob","r","","1","o","a","nudab","1"
"1380.7999999523163","","same-different-html","167","2905540","0.0-167.0","stimuli/0.csv","true","zfvqevu3n7","","","","","","same-different-html","lienalism","lienalism","f","j","same","1000","2000","500","null","null","true","70","1698.3999999761581","rss","lien","","al_ism","lienalism","s","1.0","1","s","h","lienalihm","0"
"1693.6999999284744","","same-different-html","168","2910688","0.0-168.0","stimuli/0.csv","true","zfvqevu3n7","","","","","","same-different-html","outcetenness","outcetenness","f","j","same","1000","2000","500","null","null","true","70","1660.2999999523163","prss","cet","out","en_ness","outcetenness","s","0.0","0","e","i","outcetinness","0"
"725.1000000238419","","same-different-html","169","2914111","0.0-169.0","stimuli/0.csv","true","zfvqevu3n7","","","","","","same-different-html","keat","keat","f","j","same","1000","2000","500","null","null","true","70","491.1999999284744","r","keat","","","keat","r","","1","e","u","kuat","0"
"4510.400000095367","","same-different-html","170","2922104","0.0-170.0","stimuli/0.csv","true","zfvqevu3n7","","","","","","same-different-html","sidnimearoni","sidnimearomi","f","j","different","1000","2000","500","null","null","true","74","1499.8999999761581","pprs","mear","sid_ni","oni","sidnimearoni","s","0.0","1","n","m","sidnimearomi","1"
"777.1000000238419","","same-different-html","171","2925644","0.0-171.0","stimuli/0.csv","true","zfvqevu3n7","","","","","","same-different-html","reemeta","reemeti","f","j","different","1000","2000","500","null","null","false","70","617.0999999046326","rs","reem","","eta","reemeta","s","0.0","2","a","i","reemeti","1"
"837.6000000238419","","same-different-html","172","2932032","0.0-172.0","stimuli/0.csv","true","zfvqevu3n7","","","","","","same-different-html","moostainolayl","moostainolayl","f","j","same","1000","2000","500","null","null","true","70","3780.899999976158","rssss","moos","","ta_ino_la_yl","moostainolayl","s","0.0","0","t","k","mooskainolayl","0"
"1236.7999999523163","","same-different-html","173","2936439","0.0-173.0","stimuli/0.csv","true","zfvqevu3n7","","","","","","same-different-html","ersidsarp","eysidsarp","f","j","different","1000","2000","500","null","null","true","74","1259.2000000476837","ppr","sarp","er_sid","","ersidsarp","p","0.0","1","r","y","eysidsarp","1"
"906.1999999284744","","same-different-html","174","2940513","0.0-174.0","stimuli/0.csv","true","zfvqevu3n7","","","","","","same-different-html","sidnifradoniyar","sidnifradoniyar","f","j","same","1000","2000","500","null","null","true","70","1366.2999999523163","pprss","frad","sid_ni","oni_yar","sidnifradoniyar","r","","1","r","m","sidnifmadoniyar","0"
"946.8999999761581","","same-different-html","175","2944754","0.0-175.0","stimuli/0.csv","true","zfvqevu3n7","","","","","","same-different-html","ersimriek","ersimriek","f","j","same","1000","2000","500","null","null","true","70","1385.5","ppr","riek","er_sim","","ersimriek","r","","0","r","l","ersimliek","0"
"1080.5","","same-different-html","176","2951033","0.0-176.0","stimuli/0.csv","true","zfvqevu3n7","","","","","","same-different-html","dislienity","dislienity","f","j","same","1000","2000","500","null","null","true","70","3255.600000023842","prs","lien","dis","ity","dislienity","r","","3","n","w","disliewity","0"
"692.0999999046326","","same-different-html","177","2954964","0.0-177.0","stimuli/0.csv","true","zfvqevu3n7","","","","","","same-different-html","prekoul","prekoel","f","j","different","1000","2000","500","null","null","true","74","1044.2000000476837","pr","koul","pre","","prekoul","r","","2","u","e","prekoel","1"
"1444.2999999523163","","same-different-html","178","2962162","0.0-178.0","stimuli/0.csv","true","zfvqevu3n7","","","","","","same-different-html","bakeatlatiy","bakeaplatiy","f","j","different","1000","2000","500","null","null","true","74","3939.0999999046326","prss","keat","ba","la_tiy","bakeatlatiy","r","","3","t","p","bakeaplatiy","1"
"786.5","","same-different-html","179","2968053","0.0-179.0","stimuli/0.csv","true","zfvqevu3n7","","","","","","same-different-html","edpurttanoialsim","adpurttanoialsim","f","j","different","1000","2000","500","null","null","true","74","3108","prssss","purt","ed","ta_noi_al_sim","edpurttanoialsim","p","0.0","0","e","a","adpurttanoialsim","1"
"901.1999999284744","","same-different-html","180","2972656","0.0-180.0","stimuli/0.csv","true","zfvqevu3n7","","","","","","same-different-html","reimtaunable","meimtaunable","f","j","different","1000","2000","500","null","null","true","74","1880","pprs","taun","re_im","able","reimtaunable","p","0.0","0","r","m","meimtaunable","1"
"779.2000000476837","","same-different-html","181","2976147","0.0-181.0","stimuli/0.csv","true","zfvqevu3n7","","","","","","same-different-html","fommentally","fommentally","f","j","same","1000","2000","500","null","null","false","74","913.7999999523163","rsss","fom","","ment_al_ly","fommentally","r","","1","o","e","femmentally","0"
"2027","","same-different-html","182","2988874","0.0-182.0","stimuli/0.csv","true","zfvqevu3n7","","","","","","same-different-html","negmentally","negmantally","f","j","different","1000","2000","500","null","null","true","74","899.3999999761581","rsss","neg","","ment_al_ly","negmentally","s","0.0","1","e","a","negmantally","1"
"1331.1999999284744","","same-different-html","183","2993071","0.0-183.0","stimuli/0.csv","true","zfvqevu3n7","","","","","","same-different-html","clatalism","cratalism","f","j","different","1000","2000","500","null","null","true","74","1071.7000000476837","rss","clat","","al_ism","clatalism","r","","1","l","r","cratalism","1"
"725.5","","same-different-html","184","2996445","0.0-184.0","stimuli/0.csv","true","zfvqevu3n7","","","","","","same-different-html","reemla","reemla","f","j","same","1000","2000","500","null","null","true","70","642.2000000476837","rs","reem","","la","reemla","r","","2","e","o","reomla","0"
"937.1000000238419","","same-different-html","185","3000689","0.0-185.0","stimuli/0.csv","true","zfvqevu3n7","","","","","","same-different-html","sidnitecouisyl","sidnitecouisyl","f","j","same","1000","2000","500","null","null","true","70","1320.8999999761581","pprss","tec","sid_ni","ouis_yl","sidnitecouisyl","p","0.0","0","s","c","cidnitecouisyl","0"
"622.8999999761581","","same-different-html","186","3003905","0.0-186.0","stimuli/0.csv","true","zfvqevu3n7","","","","","","same-different-html","disinnegion","disinnegien","f","j","different","1000","2000","500","null","null","false","70","661.0999999046326","pprs","neg","dis_in","ion","disinnegion","s","0.0","1","o","e","disinnegien","1"
"719.5","","same-different-html","187","3007563","0.0-187.0","stimuli/0.csv","true","zfvqevu3n7","","","","","","same-different-html","mifradcilbatiy","mifmadcilbatiy","f","j","different","1000","2000","500","null","null","true","74","939.2999999523163","prsss","frad","mi","ci_lba_tiy","mifradcilbatiy","r","","1","r","m","mifmadcilbatiy","1"
"597.0999999046326","","same-different-html","188","3010712","0.0-188.0","stimuli/0.csv","true","zfvqevu3n7","","","","","","same-different-html","bodless","bodlevs","f","j","different","1000","2000","500","null","null","true","74","625.4000000953674","rs","bod","","less","bodless","s","0.0","2","s","v","bodlevs","1"
"1988.8999999761581","","same-different-html","189","3015549","0.0-189.0","stimuli/0.csv","true","zfvqevu3n7","","","","","","same-different-html","purtulfyl","purculfyl","f","j","different","1000","2000","500","null","null","true","74","1210.6000000238419","rss","purt","","ulf_yl","purtulfyl","r","","3","t","c","purculfyl","1"
"728.7000000476837","","same-different-html","190","3021797","0.0-190.0","stimuli/0.csv","true","zfvqevu3n7","","","","","","same-different-html","remislienment","remisloenment","f","j","different","1000","2000","500","null","null","true","74","3603.399999976158","pprs","lien","re_mis","ment","remislienment","r","","1","i","o","remisloenment","1"
"926.6000000238419","","same-different-html","191","3025558","0.0-191.0","stimuli/0.csv","true","zfvqevu3n7","","","","","","same-different-html","retinneil","retinneir","f","j","different","1000","2000","500","null","null","true","74","939.7000000476837","pr","neil","retin","","retinneil","r","","3","l","r","retinneir","1"
"995.2000000476837","","same-different-html","192","3030230","0.0-192.0","stimuli/0.csv","true","zfvqevu3n7","","","","","","same-different-html","disinglociousness","disingmociousness","f","j","different","1000","2000","500","null","null","true","74","1956.2999999523163","pprss","gloc","dis_in","ious_ness","disinglociousness","r","","1","l","m","disingmociousness","1"
"1314.6000000238419","","same-different-html","193","3034109","0.0-193.0","stimuli/0.csv","true","zfvqevu3n7","","","","","","same-different-html","rom","rom","f","j","same","1000","2000","500","null","null","true","70","545.2000000476837","r","rom","","","rom","r","","1","o","e","rem","0"
"489.8000000715256","","same-different-html","194","3036948","0.0-194.0","stimuli/0.csv","true","zfvqevu3n7","","","","","","same-different-html","soom","soom","f","j","same","1000","2000","500","null","null","true","70","538.6000000238419","r","soom","","","soom","r","","2","o","a","soam","0"
"496","","same-different-html","195","3039904","0.0-195.0","stimuli/0.csv","true","zfvqevu3n7","","","","","","same-different-html","uppont","uppont","f","j","same","1000","2000","500","null","null","true","70","690.8000000715256","pr","pont","up","","uppont","p","0.0","1","p","d","udpont","0"
"426.89999997615814","","same-different-html","196","3042876","0.0-196.0","stimuli/0.csv","true","zfvqevu3n7","","","","","","same-different-html","errom","errom","f","j","same","1000","2000","500","null","null","true","70","827.2000000476837","pr","rom","er","","errom","p","0.0","1","r","l","elrom","0"
"682.2000000476837","","same-different-html","197","3046683","0.0-197.0","stimuli/0.csv","true","zfvqevu3n7","","","","","","same-different-html","girtational","girtatuonal","f","j","different","1000","2000","500","null","null","true","74","1045.5","rss","girt","","ation_al","girtational","s","0.0","2","i","u","girtatuonal","1"
"902.7000000476837","","same-different-html","198","3051103","0.0-198.0","stimuli/0.csv","true","zfvqevu3n7","","","","","","same-different-html","micolgoni","micolgeni","f","j","different","1000","2000","500","null","null","true","74","1693.2000000476837","prs","colg","mi","oni","micolgoni","s","0.0","0","o","e","micolgeni","1"
"679.2000000476837","","same-different-html","199","3054269","0.0-199.0","stimuli/0.csv","true","zfvqevu3n7","","","","","","same-different-html","overpras","overpras","f","j","same","1000","2000","500","null","null","true","70","676.8000000715256","pr","pras","over","","overpras","r","","0","p","t","overtras","0"
"1832.5","","same-different-html","200","3058972","0.0-200.0","stimuli/0.csv","true","zfvqevu3n7","","","","","","same-different-html","prenegically","prinegically","f","j","different","1000","2000","500","null","null","false","70","987.8999999761581","prsss","neg","pre","ic_al_ly","prenegically","p","0.0","2","e","i","prinegically","1"
"1033.1000000238419","","same-different-html","201","3063319","0.0-201.0","stimuli/0.csv","true","zfvqevu3n7","","","","","","same-different-html","riekcilayl","raekcilayl","f","j","different","1000","2000","500","null","null","true","74","1439.7999999523163","rsss","riek","","ci_la_yl","riekcilayl","r","","1","i","a","raekcilayl","1"
"642.7999999523163","","same-different-html","202","3067023","0.0-202.0","stimuli/0.csv","true","zfvqevu3n7","","","","","","same-different-html","lonisticate","lonisticate","f","j","same","1000","2000","500","null","null","true","70","1042.2000000476837","rsss","lon","","ist_ic_ate","lonisticate","s","1.0","0","i","e","lonistecate","0"
"783.9000000953674","","same-different-html","203","3072731","0.0-203.0","stimuli/0.csv","true","zfvqevu3n7","","","","","","same-different-html","denegalization","denedalization","f","j","different","1000","2000","500","null","null","true","74","3117.9000000953674","prssss","neg","de","al_iz_at_ion","denegalization","r","","2","g","d","denedalization","1"
"1476.2999999523163","","same-different-html","204","3077490","0.0-204.0","stimuli/0.csv","true","zfvqevu3n7","","","","","","same-different-html","disingirtiously","disingirtiously","f","j","same","1000","2000","500","null","null","true","70","1525.7000000476837","pprss","girt","dis_in","ious_ly","disingirtiously","r","","2","r","m","disingimtiously","0"
"690.5999999046326","","same-different-html","205","3081233","0.0-205.0","stimuli/0.csv","true","zfvqevu3n7","","","","","","same-different-html","martainolayl","martainolayl","f","j","same","1000","2000","500","null","null","true","70","965","rssss","mar","","ta_ino_la_yl","martainolayl","r","","2","r","n","mantainolayl","0"
"852","","same-different-html","206","3085009","0.0-206.0","stimuli/0.csv","true","zfvqevu3n7","","","","","","same-different-html","nucnaitola","nucnaitola","f","j","same","1000","2000","500","null","null","true","70","1155.1000000238419","rss","nuc","","naito_la","nucnaitola","s","1.0","0","l","m","nucnaitoma","0"
"918.6000000238419","","same-different-html","207","3094776","0.0-207.0","stimuli/0.csv","true","zfvqevu3n7","","","","","","same-different-html","krewational","frewational","f","j","different","1000","2000","500","null","null","true","74","6703.800000071526","rss","krew","","ation_al","krewational","r","","0","k","f","frewational","1"
"987","","same-different-html","208","3098537","0.0-208.0","stimuli/0.csv","true","zfvqevu3n7","","","","","","same-different-html","disgirter","disgirtor","f","j","different","1000","2000","500","null","null","true","74","826.6000000238419","prs","girt","dis","er","disgirter","s","0.0","0","e","o","disgirtor","1"
"1076.5","","same-different-html","209","3102145","0.0-209.0","stimuli/0.csv","true","zfvqevu3n7","","","","","","same-different-html","outbels","outbems","f","j","different","1000","2000","500","null","null","true","74","689.5","pr","bels","out","","outbels","r","","2","l","m","outbems","1"
"1286.5999999046326","","same-different-html","210","3106921","0.0-210.0","stimuli/0.csv","true","zfvqevu3n7","","","","","","same-different-html","sidtalcyti","sidtelcyti","f","j","different","1000","2000","500","null","null","true","74","1650.7999999523163","prs","talc","sid","yti","sidtalcyti","r","","1","a","e","sidtelcyti","1"
"1433.5999999046326","","same-different-html","211","3111379","0.0-211.0","stimuli/0.csv","true","zfvqevu3n7","","","","","","same-different-html","ungirtablity","ungirtablity","f","j","same","1000","2000","500","null","null","true","70","1065.6000000238419","prss","girt","un","abl_ity","ungirtablity","s","0.0","0","a","e","ungirteblity","0"
"900.7999999523163","","same-different-html","212","3114862","0.0-212.0","stimuli/0.csv","true","zfvqevu3n7","","","","","","same-different-html","meerically","meemically","f","j","different","1000","2000","500","null","null","true","74","829.2999999523163","rsss","meer","","ic_al_ly","meerically","r","","3","r","m","meemically","1"
"1404.2999999523163","","same-different-html","213","3120190","0.0-213.0","stimuli/0.csv","true","zfvqevu3n7","","","","","","same-different-html","mimarcilbatiy","mimercilbatiy","f","j","different","1000","2000","500","null","null","true","74","1930.2000000476837","prsss","mar","mi","ci_lba_tiy","mimarcilbatiy","r","","1","a","e","mimercilbatiy","1"
"859.7000000476837","","same-different-html","214","3162044","0.0-214.0","stimuli/0.csv","true","zfvqevu3n7","","","","","","same-different-html","redewis","radewis","f","j","different","1000","2000","500","null","null","true","74","948.3000000715256","ppr","wis","re_de","","redewis","p","0.0","1","e","a","radewis","1"
"773.8999999761581","","same-different-html","215","3191139","0.0-215.0","stimuli/0.csv","true","zfvqevu3n7","","","","","","same-different-html","eroturom","eroturom","f","j","same","1000","2000","500","null","null","true","70","1525","ppr","rom","er_otu","","eroturom","p","0.0","0","e","i","iroturom","0"
"998.8999999761581","","same-different-html","216","3195206","0.0-216.0","stimuli/0.csv","true","zfvqevu3n7","","","","","","same-different-html","lienational","lienational","f","j","same","1000","2000","500","null","null","true","70","1291.7999999523163","rss","lien","","ation_al","lienational","r","","0","l","m","mienational","0"
"799","","same-different-html","217","3199675","0.0-217.0","stimuli/0.csv","true","zfvqevu3n7","","","","","","same-different-html","louknemtlayl","luuknemtlayl","f","j","different","1000","2000","500","null","null","true","74","1764.1999999284744","rsss","louk","","nemt_la_yl","louknemtlayl","r","","1","o","u","luuknemtlayl","1"
"1984.2000000476837","","same-different-html","218","3205139","0.0-218.0","stimuli/0.csv","true","zfvqevu3n7","","","","","","same-different-html","toutonphisyl","toutomphisyl","f","j","different","1000","2000","500","null","null","true","74","1716.8000000715256","prss","tonp","tou","his_yl","toutonphisyl","r","","2","n","m","toutomphisyl","1"
"2695","","same-different-html","219","3211390","0.0-219.0","stimuli/0.csv","true","zfvqevu3n7","","","","","","same-different-html","sidnisarponiyar","sidnisarpomiyar","f","j","different","1000","2000","500","null","null","true","74","1714","pprss","sarp","sid_ni","oni_yar","sidnisarponiyar","s","0.0","1","n","m","sidnisarpomiyar","1"
"938.5","","same-different-html","220","3218605","0.0-220.0","stimuli/0.csv","true","zfvqevu3n7","","","","","","same-different-html","prasalisticly","trasalisticly","f","j","different","1000","2000","500","null","null","true","74","1689.9000000953674","rssss","pras","","al_ist_ic_ly","prasalisticly","r","","0","p","t","trasalisticly","1"
"682.7999999523163","","same-different-html","221","3221676","0.0-221.0","stimuli/0.csv","true","zfvqevu3n7","","","","","","same-different-html","dekoul","dekoul","f","j","same","1000","2000","500","null","null","true","70","666.2999999523163","pr","koul","de","","dekoul","p","0.0","1","e","a","dakoul","0"
"765.6000000238419","","same-different-html","222","3225511","0.0-222.0","stimuli/0.csv","true","zfvqevu3n7","","","","","","same-different-html","unpookationally","unpookationally","f","j","same","1000","2000","500","null","null","true","70","1287.3000000715256","prssss","pook","un","at_ion_al_ly","unpookationally","s","3.0","1","y","r","unpookationallr","0"
"348.89999997615814","","same-different-html","223","3228444","0.0-223.0","stimuli/0.csv","true","zfvqevu3n7","","","","","","same-different-html","fomor","fomor","f","j","same","1000","2000","500","null","null","true","70","825.2000000476837","rs","fom","","or","fomor","r","","2","m","y","foyor","0"
"452.5","","same-different-html","224","3231469","0.0-224.0","stimuli/0.csv","true","zfvqevu3n7","","","","","","same-different-html","wisal","wisal","f","j","same","1000","2000","500","null","null","true","70","688.3000000715256","rs","wis","","al","wisal","r","","0","w","r","risal","0"
"1788.2999999523163","","same-different-html","225","3238198","0.0-225.0","stimuli/0.csv","true","zfvqevu3n7","","","","","","same-different-html","edgenlazitanoi","edgenlazitanoi","f","j","same","1000","2000","500","null","null","true","70","2995.2000000476837","prssss","gen","ed","la_zi_ta_noi","edgenlazitanoi","s","3.0","0","n","m","edgenlazitamoi","0"
"432.89999997615814","","same-different-html","226","3241172","0.0-226.0","stimuli/0.csv","true","zfvqevu3n7","","","","","","same-different-html","xerom","xerom","f","j","same","1000","2000","500","null","null","true","70","553.7999999523163","pr","rom","xe","","xerom","r","","0","r","w","xewom","0"
"407.5","","same-different-html","227","3244571","0.0-227.0","stimuli/0.csv","true","zfvqevu3n7","","","","","","same-different-html","pook","pook","f","j","same","1000","2000","500","null","null","true","70","1112.7000000476837","r","pook","","","pook","r","","2","o","u","pouk","0"
"676.6000000238419","","same-different-html","228","3249019","0.0-228.0","stimuli/0.csv","true","zfvqevu3n7","","","","","","same-different-html","neillasitciyl","neillasitciyl","f","j","same","1000","2000","500","null","null","true","70","1958.3999999761581","rssss","neil","","la_sit_ci_yl","neillasitciyl","s","2.0","0","c","h","neillasithiyl","0"
"389.09999990463257","","same-different-html","229","3252267","0.0-229.0","stimuli/0.csv","true","zfvqevu3n7","","","","","","same-different-html","upcun","upcun","f","j","same","1000","2000","500","null","null","true","70","978.6000000238419","pr","cun","up","","upcun","p","0.0","1","p","k","ukcun","0"
"309.60000002384186","","same-different-html","230","3254996","0.0-230.0","stimuli/0.csv","true","zfvqevu3n7","","","","","","same-different-html","ramist","ramist","f","j","same","1000","2000","500","null","null","true","70","655.7000000476837","rs","ram","","ist","ramist","r","","0","r","m","mamist","0"
"683.3999999761581","","same-different-html","231","3258911","0.0-231.0","stimuli/0.csv","true","zfvqevu3n7","","","","","","same-different-html","sidnineilnat","tidnineilnat","f","j","different","1000","2000","500","null","null","true","74","1410.2999999523163","pprs","neil","sid_ni","nat","sidnineilnat","p","0.0","0","s","t","tidnineilnat","1"
"1370.2999999523163","","same-different-html","232","3263660","0.0-232.0","stimuli/0.csv","true","zfvqevu3n7","","","","","","same-different-html","onnertalcviyti","onnertalcviyti","f","j","same","1000","2000","500","null","null","true","70","1710","pprss","talc","onn_er","vi_yti","onnertalcviyti","r","","2","l","r","onnertarcviyti","0"
"813.6999999284744","","same-different-html","233","3266826","0.0-233.0","stimuli/0.csv","true","zfvqevu3n7","","","","","","same-different-html","nurdtainolasit","nurdcainolasit","f","j","different","1000","2000","500","null","null","false","70","512.2000000476837","rssss","nurd","","ta_ino_la_sit","nurdtainolasit","s","0.0","0","t","c","nurdcainolasit","1"
"889.6000000238419","","same-different-html","234","3270866","0.0-234.0","stimuli/0.csv","true","zfvqevu3n7","","","","","","same-different-html","tekisousens","tekisousels","f","j","different","1000","2000","500","null","null","true","74","1112.4000000953674","rss","tek","","isou_sens","tekisousens","s","1.0","2","n","l","tekisousels","1"
"634","","same-different-html","235","3273983","0.0-235.0","stimuli/0.csv","true","zfvqevu3n7","","","","","","same-different-html","wision","wisien","f","j","different","1000","2000","500","null","null","true","74","678.8999999761581","rs","wis","","ion","wision","s","0.0","1","o","e","wisien","1"
"710.2999999523163","","same-different-html","236","3277971","0.0-236.0","stimuli/0.csv","true","zfvqevu3n7","","","","","","same-different-html","neilcila","leilcila","f","j","different","1000","2000","500","null","null","true","74","1558.8000000715256","rss","neil","","ci_la","neilcila","r","","0","n","l","leilcila","1"
"825.2000000476837","","same-different-html","237","3282029","0.0-237.0","stimuli/0.csv","true","zfvqevu3n7","","","","","","same-different-html","ersiweviyl","ersiweviyl","f","j","same","1000","2000","500","null","null","true","70","1460.2000000476837","prss","siw","er","evi_yl","ersiweviyl","p","0.0","0","e","i","irsiweviyl","0"
"1027.3999999761581","","same-different-html","238","3286250","0.0-238.0","stimuli/0.csv","true","zfvqevu3n7","","","","","","same-different-html","disingeediously","disingeediously","f","j","same","1000","2000","500","null","null","true","70","1394.7000000476837","pprss","geed","dis_in","ious_ly","disingeediously","s","0.0","1","o","u","disingeediuusly","0"
"825.5","","same-different-html","239","3289754","0.0-239.0","stimuli/0.csv","true","zfvqevu3n7","","","","","","same-different-html","nolcila","nolcila","f","j","same","1000","2000","500","null","null","true","70","854.1000000238419","rss","nol","","ci_la","nolcila","r","","1","o","e","nelcila","0"
"2658.8000000715256","","same-different-html","240","3296097","0.0-240.0","stimuli/0.csv","true","zfvqevu3n7","","","","","","same-different-html","clatisticate","clatistitate","f","j","different","1000","2000","500","null","null","true","74","1900.8999999761581","rsss","clat","","ist_ic_ate","clatisticate","s","1.0","1","c","t","clatistitate","1"
"1296.1000000238419","","same-different-html","241","3302112","0.0-241.0","stimuli/0.csv","true","zfvqevu3n7","","","","","","same-different-html","erpnurdbalyl","erpnurdbalyl","f","j","same","1000","2000","500","null","null","true","70","2890.600000023842","prss","nurd","erp","bal_yl","erpnurdbalyl","r","","0","n","r","erprurdbalyl","0"
"759.3999999761581","","same-different-html","242","3305559","0.0-242.0","stimuli/0.csv","true","zfvqevu3n7","","","","","","same-different-html","expont","uxpont","f","j","different","1000","2000","500","null","null","true","74","721.2999999523163","pr","pont","ex","","expont","p","0.0","0","e","u","uxpont","1"
"832.1999999284744","","same-different-html","243","3308886","0.0-243.0","stimuli/0.csv","true","zfvqevu3n7","","","","","","same-different-html","erpgen","erpgen","f","j","same","1000","2000","500","null","null","true","70","699.6000000238419","pr","gen","erp","","erpgen","r","","2","n","m","erpgem","0"
"1208.1000000238419","","same-different-html","244","3312572","0.0-244.0","stimuli/0.csv","true","zfvqevu3n7","","","","","","same-different-html","retaunate","reteunate","f","j","different","1000","2000","500","null","null","true","74","647.3999999761581","prs","taun","re","ate","retaunate","r","","1","a","e","reteunate","1"
"825.7000000476837","","same-different-html","245","3315765","0.0-245.0","stimuli/0.csv","true","zfvqevu3n7","","","","","","same-different-html","girtal","girtal","f","j","same","1000","2000","500","null","null","true","70","529.5","rs","girt","","al","girtal","s","0.0","0","a","e","girtel","0"
"2241.7999999523163","","same-different-html","246","3320881","0.0-246.0","stimuli/0.csv","true","zfvqevu3n7","","","","","","same-different-html","nusimmarbaly","nusimmurbaly","f","j","different","1000","2000","500","null","null","false","70","1143.3999999761581","pprss","mar","nu_sim","bal_y","nusimmarbaly","r","","1","a","u","nusimmurbaly","1"
"1107.7999999523163","","same-different-html","247","3324802","0.0-247.0","stimuli/0.csv","true","zfvqevu3n7","","","","","","same-different-html","girtment","girtment","f","j","same","1000","2000","500","null","null","true","70","906.6999999284744","rs","girt","","ment","girtment","s","0.0","2","n","m","girtmemt","0"
"727","","same-different-html","248","3328619","0.0-248.0","stimuli/0.csv","true","zfvqevu3n7","","","","","","same-different-html","desoomalization","dehoomalization","f","j","different","1000","2000","500","null","null","true","74","1215.7999999523163","prssss","soom","de","al_iz_at_ion","desoomalization","r","","0","s","h","dehoomalization","1"
"1741.6000000238419","","same-different-html","249","3333716","0.0-249.0","stimuli/0.csv","true","zfvqevu3n7","","","","","","same-different-html","rieksitcieta","rietsitcieta","f","j","different","1000","2000","500","null","null","true","74","1581.1000000238419","rsss","riek","","sit_ci_eta","rieksitcieta","r","","3","k","t","rietsitcieta","1"
"1268.8999999761581","","same-different-html","250","3337405","0.0-250.0","stimuli/0.csv","true","zfvqevu3n7","","","","","","same-different-html","nureem","nuruem","f","j","different","1000","2000","500","null","null","true","74","611.2999999523163","pr","reem","nu","","nureem","r","","1","e","u","nuruem","1"
"760.2999999523163","","same-different-html","251","3341066","0.0-251.0","stimuli/0.csv","true","zfvqevu3n7","","","","","","same-different-html","reprasively","reprasively","f","j","same","1000","2000","500","null","null","true","70","957.1000000238419","prss","pras","re","ive_ly","reprasively","p","0.0","0","r","y","yeprasively","0"
"782.6999999284744","","same-different-html","252","3344866","0.0-252.0","stimuli/0.csv","true","zfvqevu3n7","","","","","","same-different-html","toureemhisyl","toureimhisyl","f","j","different","1000","2000","500","null","null","false","70","1219.3999999761581","prss","reem","tou","his_yl","toureemhisyl","r","","2","e","i","toureimhisyl","1"
"867.3999999761581","","same-different-html","253","3376180","0.0-253.0","stimuli/0.csv","true","zfvqevu3n7","","","","","","same-different-html","sidnipurtoniyar","sidnipartoniyar","f","j","different","1000","2000","500","null","null","false","70","1352.2000000476837","pprss","purt","sid_ni","oni_yar","sidnipurtoniyar","r","","1","u","a","sidnipartoniyar","1"
"848.1000000238419","","same-different-html","254","3379639","0.0-254.0","stimuli/0.csv","true","zfvqevu3n7","","","","","","same-different-html","cetiousness","cetiousness","f","j","same","1000","2000","500","null","null","true","70","810.6000000238419","rss","cet","","ious_ness","cetiousness","r","","2","t","f","cefiousness","0"
"895.1000000238419","","same-different-html","255","3383444","0.0-255.0","stimuli/0.csv","true","zfvqevu3n7","","","","","","same-different-html","precetically","precetocally","f","j","different","1000","2000","500","null","null","true","74","1250","prsss","cet","pre","ic_al_ly","precetically","s","0.0","0","i","o","precetocally","1"
"868.5","","same-different-html","256","3387357","0.0-256.0","stimuli/0.csv","true","zfvqevu3n7","","","","","","same-different-html","meartainolayl","meartainolayl","f","j","same","1000","2000","500","null","null","true","70","1164.6999999284744","rssss","mear","","ta_ino_la_yl","meartainolayl","r","","3","r","m","meamtainolayl","0"
"540.1999999284744","","same-different-html","257","3391113","0.0-257.0","stimuli/0.csv","true","zfvqevu3n7","","","","","","same-different-html","ramal","ramal","f","j","same","1000","2000","500","null","null","true","70","574.6000000238419","rs","ram","","al","ramal","r","","2","m","w","rawal","0"
"423.39999997615814","","same-different-html","258","3393885","0.0-258.0","stimuli/0.csv","true","zfvqevu3n7","","","","","","same-different-html","depraser","depraser","f","j","same","1000","2000","500","null","null","true","70","607.3999999761581","prs","pras","de","er","depraser","s","0.0","0","e","i","deprasir","0"
"647.2000000476837","","same-different-html","259","3396871","0.0-259.0","stimuli/0.csv","true","zfvqevu3n7","","","","","","same-different-html","disgirtly","disgirtlw","f","j","different","1000","2000","500","null","null","true","74","576.7000000476837","prs","girt","dis","ly","disgirtly","s","0.0","1","y","w","disgirtlw","1"
"1464.2000000476837","","same-different-html","260","3401090","0.0-260.0","stimuli/0.csv","true","zfvqevu3n7","","","","","","same-different-html","ramationalism","ramationalism","f","j","same","1000","2000","500","null","null","true","70","1092.6999999284744","rssss","ram","","at_ion_al_ism","ramationalism","r","","1","a","u","rumationalism","0"
"367.39999997615814","","same-different-html","261","3403934","0.0-261.0","stimuli/0.csv","true","zfvqevu3n7","","","","","","same-different-html","keat","keet","f","j","different","1000","2000","500","null","null","false","70","496.89999997615814","r","keat","","","keat","r","","2","a","e","keet","1"
"671.3000000715256","","same-different-html","262","3412726","0.0-262.0","stimuli/0.csv","true","zfvqevu3n7","","","","","","same-different-html","imbelsically","imbelsically","f","j","same","1000","2000","500","null","null","true","70","3030.3000000715256","prsss","bels","im","ic_al_ly","imbelsically","p","0.0","1","m","y","iybelsically","0"
"619.4000000953674","","same-different-html","263","3415972","0.0-263.0","stimuli/0.csv","true","zfvqevu3n7","","","","","","same-different-html","revosiw","mevosiw","f","j","different","1000","2000","500","null","null","true","74","565.6999999284744","pr","siw","revo","","revosiw","p","0.0","0","r","m","mevosiw","1"
"837.3000000715256","","same-different-html","264","3419364","0.0-264.0","stimuli/0.csv","true","zfvqevu3n7","","","","","","same-different-html","ramious","ramious","f","j","same","1000","2000","500","null","null","true","70","659.3999999761581","rs","ram","","ious","ramious","r","","0","r","m","mamious","0"
"702","","same-different-html","265","3422916","0.0-265.0","stimuli/0.csv","true","zfvqevu3n7","","","","","","same-different-html","sarplasim","sarhlasim","f","j","different","1000","2000","500","null","null","true","74","1021.3000000715256","rss","sarp","","la_sim","sarplasim","r","","3","p","h","sarhlasim","1"
"1301","","same-different-html","266","3428447","0.0-266.0","stimuli/0.csv","true","zfvqevu3n7","","","","","","same-different-html","tonptainolayl","tonptainolayl","f","j","same","1000","2000","500","null","null","true","70","2453","rssss","tonp","","ta_ino_la_yl","tonptainolayl","r","","2","n","y","toyptainolayl","0"
"848.1999999284744","","same-different-html","267","3432515","0.0-267.0","stimuli/0.csv","true","zfvqevu3n7","","","","","","same-different-html","inlonivation","inlonivation","f","j","same","1000","2000","500","null","null","true","70","1377.5","prsss","lon","in","iv_at_ion","inlonivation","r","","2","n","m","inlomivation","0"
"612.6000000238419","","same-different-html","268","3435483","0.0-268.0","stimuli/0.csv","true","zfvqevu3n7","","","","","","same-different-html","wisless","wesless","f","j","different","1000","2000","500","null","null","true","74","560.7000000476837","rs","wis","","less","wisless","r","","1","i","e","wesless","1"
"1026.1999999284744","","same-different-html","269","3439393","0.0-269.0","stimuli/0.csv","true","zfvqevu3n7","","","","","","same-different-html","marcilayl","marcirayl","f","j","different","1000","2000","500","null","null","true","74","1114.2000000476837","rsss","mar","","ci_la_yl","marcilayl","s","1.0","0","l","r","marcirayl","1"
"1606.1000000238419","","same-different-html","270","3443452","0.0-270.0","stimuli/0.csv","true","zfvqevu3n7","","","","","","same-different-html","pukoop","pukoot","f","j","different","1000","2000","500","null","null","true","74","694.3999999761581","pr","koop","pu","","pukoop","r","","3","p","t","pukoot","1"
"647.3999999761581","","same-different-html","271","3446578","0.0-271.0","stimuli/0.csv","true","zfvqevu3n7","","","","","","same-different-html","untaun","unfaun","f","j","different","1000","2000","500","null","null","true","74","688.1000000238419","pr","taun","un","","untaun","r","","0","t","f","unfaun","1"
"769.1999999284744","","same-different-html","272","3449749","0.0-272.0","stimuli/0.csv","true","zfvqevu3n7","","","","","","same-different-html","enfomment","enfomment","f","j","same","1000","2000","500","null","null","true","70","706.6000000238419","prs","fom","en","ment","enfomment","s","0.0","2","n","r","enfommert","0"
"1136.8999999761581","","same-different-html","273","3454321","0.0-273.0","stimuli/0.csv","true","zfvqevu3n7","","","","","","same-different-html","sidcolgnemt","sidcolgnemt","f","j","same","1000","2000","500","null","null","true","70","1567.5999999046326","prs","colg","sid","nemt","sidcolgnemt","p","0.0","2","d","g","sigcolgnemt","0"
"864.9000000953674","","same-different-html","274","3457570","0.0-274.0","stimuli/0.csv","true","zfvqevu3n7","","","","","","same-different-html","reinram","reirram","f","j","different","1000","2000","500","null","null","true","74","621.3999999761581","ppr","ram","re_in","","reinram","p","1.0","1","n","r","reirram","1"
"651.3000000715256","","same-different-html","275","3464785","0.0-275.0","stimuli/0.csv","true","zfvqevu3n7","","","","","","same-different-html","prekeirablly","hrekeirablly","f","j","different","1000","2000","500","null","null","true","74","4754.399999976158","prss","keir","pre","abl_ly","prekeirablly","p","0.0","0","p","h","hrekeirablly","1"
"1820.2999999523163","","same-different-html","276","3470557","0.0-276.0","stimuli/0.csv","true","zfvqevu3n7","","","","","","same-different-html","sidnireemsioussen","sidnireemsioussen","f","j","same","1000","2000","500","null","null","true","70","2300.7000000476837","pprss","reem","sid_ni","siou_ssen","sidnireemsioussen","r","","1","e","a","sidniraemsioussen","0"
"641.8000000715256","","same-different-html","277","3474102","0.0-277.0","stimuli/0.csv","true","zfvqevu3n7","","","","","","same-different-html","outtrup","euttrup","f","j","different","1000","2000","500","null","null","true","74","1309.1000000238419","pr","trup","out","","outtrup","p","0.0","0","o","e","euttrup","1"
"737.2999999523163","","same-different-html","278","3477405","0.0-278.0","stimuli/0.csv","true","zfvqevu3n7","","","","","","same-different-html","premislien","preyislien","f","j","different","1000","2000","500","null","null","true","74","904.2999999523163","ppr","lien","pre_mis","","premislien","p","1.0","0","m","y","preyislien","1"
"785.3999999761581","","same-different-html","279","3480841","0.0-279.0","stimuli/0.csv","true","zfvqevu3n7","","","","","","same-different-html","lienfulness","lienfulness","f","j","same","1000","2000","500","null","null","true","70","936.6000000238419","rss","lien","","ful_ness","lienfulness","s","1.0","3","s","b","lienfulnesb","0"
"991.2999999523163","","same-different-html","280","3486492","0.0-280.0","stimuli/0.csv","true","zfvqevu3n7","","","","","","same-different-html","nunautouisyl","nunautouisyl","f","j","same","1000","2000","500","null","null","true","70","2844.9000000953674","prss","naut","nu","ouis_yl","nunautouisyl","r","","3","t","g","nunaugouisyl","0"
"854.8999999761581","","same-different-html","281","3491806","0.0-281.0","stimuli/0.csv","true","zfvqevu3n7","","","","","","same-different-html","deteakivation","doteakivation","f","j","different","1000","2000","500","null","null","true","74","2592.5","prsss","teak","de","iv_at_ion","deteakivation","p","0.0","1","e","o","doteakivation","1"
"1017.7000000476837","","same-different-html","282","3496915","0.0-282.0","stimuli/0.csv","true","zfvqevu3n7","","","","","","same-different-html","outprasishly","outprasishlr","f","j","different","1000","2000","500","null","null","true","74","2239.600000023842","prss","pras","out","ish_ly","outprasishly","s","1.0","1","y","r","outprasishlr","1"
"667.8000000715256","","same-different-html","283","3512589","0.0-283.0","stimuli/0.csv","true","zfvqevu3n7","","","","","","same-different-html","ernigen","ernigen","f","j","same","1000","2000","500","null","null","true","70","845.0999999046326","ppr","gen","er_ni","","ernigen","p","1.0","0","n","w","erwigen","0"
"671.5","","same-different-html","284","3515730","0.0-284.0","stimuli/0.csv","true","zfvqevu3n7","","","","","","same-different-html","overpook","overpeok","f","j","different","1000","2000","500","null","null","true","74","631.9000000953674","pr","pook","over","","overpook","r","","1","o","e","overpeok","1"
"876.7000000476837","","same-different-html","285","3519807","0.0-285.0","stimuli/0.csv","true","zfvqevu3n7","","","","","","same-different-html","morationalist","morationalist","f","j","same","1000","2000","500","null","null","true","70","1419","rssss","mor","","at_ion_al_ist","morationalist","r","","2","r","m","momationalist","0"
"899.6000000238419","","same-different-html","286","3524382","0.0-286.0","stimuli/0.csv","true","zfvqevu3n7","","","","","","same-different-html","reemtainolasit","reemtainolasit","f","j","same","1000","2000","500","null","null","true","70","1958.6000000238419","rssss","reem","","ta_ino_la_sit","reemtainolasit","s","2.0","0","l","w","reemtainowasit","0"
"845.3999999761581","","same-different-html","287","3528408","0.0-287.0","stimuli/0.csv","true","zfvqevu3n7","","","","","","same-different-html","eddobvitaino","edhobvitaino","f","j","different","1000","2000","500","null","null","true","74","1348","prsss","dob","ed","vi_ta_ino","eddobvitaino","r","","0","d","h","edhobvitaino","1"
"743.6999999284744","","same-different-html","288","3532031","0.0-288.0","stimuli/0.csv","true","zfvqevu3n7","","","","","","same-different-html","misprasment","misprasment","f","j","same","1000","2000","500","null","null","true","70","980.3999999761581","prs","pras","mis","ment","misprasment","r","","1","r","m","mispmasment","0"
"1019.5","","same-different-html","289","3537573","0.0-289.0","stimuli/0.csv","true","zfvqevu3n7","","","","","","same-different-html","nonlienically","norlienically","f","j","different","1000","2000","500","null","null","true","74","2621","prsss","lien","non","ic_al_ly","nonlienically","p","0.0","2","n","r","norlienically","1"
"561.7999999523163","","same-different-html","290","3541101","0.0-290.0","stimuli/0.csv","true","zfvqevu3n7","","","","","","same-different-html","gensels","tensels","f","j","different","1000","2000","500","null","null","true","74","1148","rs","gen","","sels","gensels","r","","0","g","t","tensels","1"
"1082.6000000238419","","same-different-html","291","3545767","0.0-291.0","stimuli/0.csv","true","zfvqevu3n7","","","","","","same-different-html","niselbevissen","niselbevissen","f","j","same","1000","2000","500","null","null","true","70","1657.2000000476837","prss","selb","ni","evi_ssen","niselbevissen","p","0.0","1","i","o","noselbevissen","0"
"932.7000000476837","","same-different-html","292","3549524","0.0-292.0","stimuli/0.csv","true","zfvqevu3n7","","","","","","same-different-html","debodization","debodization","f","j","same","1000","2000","500","null","null","true","70","972.6000000238419","prsss","bod","de","iz_at_ion","debodization","p","0.0","0","d","s","sebodization","0"
"881.6999999284744","","same-different-html","293","3553001","0.0-293.0","stimuli/0.csv","true","zfvqevu3n7","","","","","","same-different-html","pupurt","pupurt","f","j","same","1000","2000","500","null","null","true","70","660.7999999523163","pr","purt","pu","","pupurt","r","","0","p","s","pusurt","0"
"787.4000000953674","","same-different-html","294","3558116","0.0-294.0","stimuli/0.csv","true","zfvqevu3n7","","","","","","same-different-html","darfationally","darfateonally","f","j","different","1000","2000","500","null","null","true","74","2387.8000000715256","rssss","darf","","at_ion_al_ly","darfationally","s","1.0","0","i","e","darfateonally","1"
"822.9000000953674","","same-different-html","295","3562389","0.0-295.0","stimuli/0.csv","true","zfvqevu3n7","","","","","","same-different-html","netecnemt","netecnemt","f","j","same","1000","2000","500","null","null","true","70","1683","prs","tec","ne","nemt","netecnemt","p","0.0","1","e","a","natecnemt","0"
"810.8999999761581","","same-different-html","296","3572376","0.0-296.0","stimuli/0.csv","true","zfvqevu3n7","","","","","","same-different-html","incetability","encetability","f","j","different","1000","2000","500","null","null","true","74","1291.4000000953674","prss","cet","in","abil_ity","incetability","p","0.0","0","i","e","encetability","1"
"909.6000000238419","","same-different-html","297","3576082","0.0-297.0","stimuli/0.csv","true","zfvqevu3n7","","","","","","same-different-html","repsimmof","repsimmof","f","j","same","1000","2000","500","null","null","true","70","978.8999999761581","ppr","mof","rep_sim","","repsimmof","p","0.0","0","r","w","wepsimmof","0"
"931.7000000476837","","same-different-html","298","3580677","0.0-298.0","stimuli/0.csv","true","zfvqevu3n7","","","","","","same-different-html","nautlibatiy","nautlibatiy","f","j","same","1000","2000","500","null","null","true","70","1914.1999999284744","rss","naut","","liba_tiy","nautlibatiy","r","","1","a","o","noutlibatiy","0"
"463.7999999523163","","same-different-html","299","3583607","0.0-299.0","stimuli/0.csv","true","zfvqevu3n7","","","","","","same-different-html","ernitek","ernitek","f","j","same","1000","2000","500","null","null","true","70","644.5","ppr","tek","er_ni","","ernitek","r","","2","k","c","ernitec","0"
"674","","same-different-html","300","3587243","0.0-300.0","stimuli/0.csv","true","zfvqevu3n7","","","","","","same-different-html","unmistaunable","unmistaunable","f","j","same","1000","2000","500","null","null","true","70","1170.6999999284744","pprs","taun","un_mis","able","unmistaunable","p","1.0","0","m","w","unwistaunable","0"
"726.5","","same-different-html","301","3590881","0.0-301.0","stimuli/0.csv","true","zfvqevu3n7","","","","","","same-different-html","ernineil","ernineil","f","j","same","1000","2000","500","null","null","true","70","992.1000000238419","ppr","neil","er_ni","","ernineil","p","0.0","0","e","a","arnineil","0"
